idx,t,px,py,pz,vx,vy,vz,ax,ay,az,yaw,mode,ledr,ledg,ledb
0,0.0,-4.999999999999999,-4.188020325449743e-278,5.119325189753227e-17,-1.7763568394002505e-14,-2.710808266100581e-262,-0.14147100515477073,1.7763568394002505e-13,1.8072055107337188e-261,-0.4341932989681957,0.0,70.0,255.0,255.0,255.0
1,0.05,-5.0,-1.3554041330502947e-263,-0.007073550257738486,-8.881784197001252e-15,-1.8072055107337216e-262,-0.16318067010318052,8.881784197001252e-14,2.484907577258863e-261,-0.6475157860812694,0.0,70.0,255.0,255.0,255.0
2,0.1,-5.0,-1.8072055107337258e-263,-0.016318067010318002,-8.881784197001252e-15,-2.2590068884171802e-263,-0.20622258376289768,0.0,2.710808266100579e-261,-0.8532899484522943,0.0,70.0,255.0,255.0,255.0
3,0.15000000000000002,-5.000000000000001,-1.5813048218920127e-263,-0.027695808634028256,-8.881784197001252e-15,9.03602755366858e-263,-0.24850966494840995,-8.881784197001252e-13,1.8072055107337312e-261,-0.8381932989682097,0.0,70.0,255.0,255.0,255.0
4,0.2,-5.000000000000001,-9.036027553668678e-264,-0.041169033505159,-9.769962616701378e-14,1.5813048218920132e-262,-0.29004191365971865,-8.881784197001252e-13,8.846460542053304e-262,-0.8230954610334004,0.0,70.0,255.0,255.0,255.0
5,0.25,-5.000000000000011,7.006338347832763e-279,-0.056700000000000125,-9.769962616701378e-14,1.7882488095721884e-262,-0.33081921105175,9.769962616701378e-13,-1.4691443400195872e-262,-0.8079907895069482,0.0,70.0,255.0,255.0,255.0
6,0.30000000000000004,-5.000000000000011,8.846460542053207e-264,-0.074250954610334,0.0,1.4343903878900545e-262,-0.3708409926104135,9.769962616701378e-13,-1.316437580662685e-261,-0.7928774687003126,0.0,70.0,255.0,255.0,255.0
7,0.35000000000000003,-5.000000000000011,1.4343903878900553e-263,-0.09378409926104148,0.0,4.718112289095031e-263,-0.41010695792178126,0.0,-2.376959695644534e-261,-0.7777709814853084,0.0,70.0,255.0,255.0,255.0
8,0.4,-5.000000000000011,1.3564572831148239e-263,-0.11526165040251213,0.0,-9.425693077544795e-263,-0.4486180907589443,0.0,-2.934076079780977e-261,-0.762696054239283,0.0,70.0,255.0,255.0,255.0
9,0.45,-5.000000000000011,4.918210801355757e-264,-0.1386459083369359,0.0,-2.4622648508714746e-262,-0.48637656334570956,0.0,-2.596014909066801e-261,-0.7476705349903212,0.0,70.0,255.0,255.0,255.0
10,0.5,-5.000000000000011,-1.1058075677566511e-263,-0.16389930673708308,0.0,-3.5385842168212807e-262,-0.5233851442579764,0.0,-8.130318498172693e-262,-0.7326970006972877,0.0,70.0,255.0,255.0,255.0
11,0.55,-5.000000000000011,-3.0467631366857053e-263,-0.19098442276273356,0.0,-3.275296700688744e-262,-0.5596462634154383,0.0,2.593908608937744e-261,-0.7177764192066893,0.0,70.0,255.0,255.0,255.0
12,0.6000000000000001,-5.000000000000011,-4.3811042684453956e-263,-0.21986393307862692,0.0,-9.446756078835367e-263,-0.5951627861786454,0.0,6.573762702797156e-261,-0.7029303567363088,0.0,70.0,255.0,255.0,255.0
13,0.65,-5.000000000000011,-3.991438744569242e-263,-0.2505007013805981,0.0,3.2984660021084125e-262,-0.6299392990890692,0.0,9.35934462347938e-261,-0.688187696929119,0.0,70.0,255.0,255.0,255.0
14,0.7000000000000001,-5.000000000000011,-1.0826382663369828e-263,-0.28285786298753385,0.0,8.414669015595845e-262,-0.6639815558715573,0.0,9.086578756766069e-261,-0.6735636034368198,0.0,70.0,255.0,255.0,255.0
15,0.75,-5.000000000000011,4.423230271026604e-263,-0.31689885696775383,0.0,1.2385044758874483e-261,-0.6972956594327512,0.0,3.2521273992690793e-261,-0.659063931942766,0.0,70.0,255.0,255.0,255.0
16,0.8,-5.000000000000011,1.13024064925375e-262,-0.35258742893080897,0.0,1.1666796414864924e-261,-0.7298879490658339,0.0,-9.078153556249841e-261,-0.6446832650898349,0.0,70.0,255.0,255.0,255.0
17,0.8500000000000001,-5.000000000000011,1.6090026685891528e-262,-0.3898876518743372,0.0,3.306891202624641e-262,-0.7617639859417347,0.0,-2.39180911155441e-260,-0.6303867524086681,0.0,70.0,255.0,255.0,255.0
18,0.9,-5.000000000000011,1.460929769516214e-262,-0.42876382752498243,0.0,-1.2251294700679177e-261,-0.7929266243067007,0.0,-3.450330241413654e-260,-0.6161123188834217,0.0,70.0,255.0,255.0,255.0
19,0.9500000000000001,-5.000000000000011,3.838731985212349e-263,-0.4691803143050073,0.0,-3.1196411211511906e-261,-0.8233752178300768,0.0,-3.375030011799747e-260,-0.6017893636166727,0.0,70.0,255.0,255.0,255.0
20,1.0,-5.000000000000011,-1.6587113516349762e-262,-0.5111013493079901,0.0,-4.600159481867664e-261,-0.853105560668368,0.0,-1.2195477747259027e-260,-0.587351234235578,0.0,70.0,255.0,255.0,255.0
21,1.05,-5.000000000000011,-4.216286283346429e-262,-0.5544908703718441,0.0,-4.339188895877093e-261,-0.8821103412536346,0.0,3.371870561606163e-260,-0.5727638071473029,0.0,70.0,255.0,255.0,255.0
22,1.1,-5.000000000000011,-5.99790024751207e-262,-0.5993123834333536,0.0,-1.2282889202615005e-261,-0.9103819413830982,0.0,8.909860175937922e-260,-0.5580453375917283,0.0,70.0,255.0,255.0,255.0
23,1.1500000000000001,-5.000000000000011,-5.44457520360793e-262,-0.6455290645101539,0.0,4.57067128006083e-261,-0.9379148750128075,0.0,1.2865386503306677e-259,-0.5432403235745231,0.0,70.0,255.0,255.0,255.0
24,1.2000000000000002,-5.000000000000011,-1.4272289674512392e-262,-0.6931038709346343,0.0,1.1637097583045177e-260,-0.9647059737405506,0.0,1.2591462171522375e-259,-0.5283989420965196,0.0,70.0,255.0,255.0,255.0
25,1.25,-5.000000000000011,6.192522379437248e-262,-0.741999661884209,0.0,1.7162133451583205e-260,-0.9907547692224594,0.0,4.55297835897671e-260,-0.51357514043886,0.0,70.0,255.0,255.0,255.0
26,1.3,-5.000000000000011,1.5734904484131968e-261,-0.7921793478568803,0.0,1.6190075942021887e-260,-1.0160634877844366,0.0,-1.257966689079966e-259,-0.49880099350047,0.0,70.0,255.0,255.0,255.0
27,1.35,-5.000000000000011,2.2382598321459136e-261,-0.8436060106626526,0.0,4.582466560783544e-261,-1.0406348685725064,0.0,-3.3247631592197294e-259,-0.4840709648235242,0.0,70.0,255.0,255.0,255.0
28,1.4000000000000001,-5.000000000000011,2.0317371044915512e-261,-0.8962428347141309,0.0,-1.705755565017541e-260,-1.064470584266789,0.0,-4.801121577181306e-259,-0.4693681583802456,0.0,70.0,255.0,255.0,255.0
29,1.4500000000000002,-5.000000000000011,5.325042671283725e-262,-0.9500530690893315,0.0,-4.3428749211029515e-260,-1.087571684410531,0.0,-4.699081867428976e-259,-0.45468106846349166,0.0,70.0,255.0,255.0,255.0
30,1.5,-5.000000000000011,-2.311137816611401e-261,-1.005000003155184,0.0,-6.404837432446517e-260,-1.1099386911131381,0.0,-1.699236566118094e-259,-0.4400002319809859,0.0,70.0,255.0,255.0,255.0
31,1.55,-5.000000000000011,-5.872333165318144e-261,-1.0610469382006453,0.0,-6.0421114872210456e-260,-1.1315717076086296,0.0,4.6946797001592515e-259,-0.4253189321374973,0.0,70.0,255.0,255.0,255.0
32,1.6,-5.000000000000011,-8.353249303832447e-261,-1.118157173916047,0.0,-1.7101577322872655e-260,-1.1524705843268879,0.0,1.2408066619285123e-258,-0.4106308031142092,0.0,70.0,255.0,255.0,255.0
33,1.6500000000000001,-5.000000000000011,-7.58249089760541e-261,-1.1762939966333341,0.0,6.365955132064079e-260,-1.1726347879200505,0.0,1.791794765839455e-258,-0.3959270429045425,0.0,70.0,255.0,255.0,255.0
34,1.7000000000000002,-5.000000000000011,-1.9872941717683674e-261,-1.235420652708052,0.0,1.6207789926107287e-259,-1.1920632886173421,0.0,1.753718125256369e-258,-0.38119678404955337,0.0,70.0,255.0,255.0,255.0
35,1.75,-5.000000000000011,8.625299028501878e-261,-1.2955003254950683,0.0,2.390313638462777e-259,-1.2107544663250058,0.0,6.341648428574698e-259,-0.3664239316371942,0.0,70.0,255.0,255.0,255.0
36,1.8,-5.000000000000011,2.1915842212859402e-260,-1.3564960993405526,0.0,2.2549438354681986e-259,-1.2287056817810615,0.0,-1.7520752111557111e-258,-0.3516032779494971,0.0,70.0,255.0,255.0,255.0
37,1.85,-5.000000000000011,3.1174737383183865e-260,-1.4183708936731745,0.0,6.382384273070659e-260,-1.2459147941199555,0.0,-4.63075033179208e-258,-0.3367658227196424,0.0,70.0,255.0,255.0,255.0
38,1.9000000000000001,-5.000000000000011,2.829822648593006e-260,-1.4810875787525482,0.0,-2.3758064963238816e-259,-1.2623822640530258,0.0,-6.687066905639688e-258,-0.32196367000163484,0.0,70.0,255.0,255.0,255.0
39,1.9500000000000002,-5.000000000000011,7.416672419945048e-261,-1.544609120078477,0.0,-6.048828478332622e-259,-1.278111161120119,0.0,-6.544964314282574e-258,-0.3072450820515993,0.0,70.0,255.0,255.0,255.0
40,2.0,-5.000000000000011,-3.2190058297396163e-260,-1.60889869486456,0.0,-8.920770810606457e-259,-1.2931067722581857,0.0,-2.366735714818066e-258,-0.292652013498218,0.0,70.0,255.0,255.0,255.0
41,2.0500000000000003,-5.000000000000011,-8.179103568611953e-260,-1.6739197973042956,0.0,-8.415564193150689e-259,-1.3073763624699408,0.0,6.538832874606919e-258,-0.2782017555982508,0.0,70.0,255.0,255.0,255.0
42,2.1,-5.000000000000011,-1.1634570022890306e-259,-1.7396363311115541,0.0,-2.3819379359995372e-259,-1.3209269478180108,0.0,1.7282194665239805e-257,-0.2638641344454573,0.0,70.0,255.0,255.0,255.0
43,2.15,-5.000000000000011,-1.056104150461149e-259,-1.8060124920860967,0.0,8.866630472089117e-259,-1.3337627759144866,0.0,2.495647285671931e-257,-0.24957920948993628,0.0,70.0,255.0,255.0,255.0
44,2.2,-5.000000000000011,-2.7679395508011877e-260,-1.8730126087030028,0.0,2.2574534920719776e-258,-1.3458848687670044,0.0,2.4426139131873945e-257,-0.23528340056455654,0.0,70.0,255.0,255.0,255.0
45,2.25,-5.000000000000011,1.2013493416108285e-259,-1.9406009789627972,0.0,3.3292769603963062e-258,-1.3572911159709422,0.0,8.832778016414795e-258,-0.22092400504591936,0.0,70.0,255.0,255.0,255.0
46,2.3000000000000003,-5.000000000000011,3.052483005316188e-259,-2.008741720300097,0.0,3.140731293713457e-258,-1.3679772692715964,0.0,-2.4403256287271966e-257,-0.2064696996574078,0.0,70.0,255.0,255.0,255.0
47,2.35,-5.000000000000011,4.342080635324286e-259,-2.077398705889957,0.0,8.889513316691092e-259,-1.377938085936683,0.0,-6.4498028329167174e-257,-0.19190034346123763,0.0,70.0,255.0,255.0,255.0
48,2.4000000000000004,-5.000000000000011,3.941434336985297e-259,-2.1465355288937653,0.0,-3.3090715392032607e-258,-1.3871673036177201,0.0,-9.313882452123756e-257,-0.17719678807606165,0.0,70.0,255.0,255.0,255.0
49,2.45,-5.000000000000011,1.0330090961210249e-259,-2.216115436251729,0.0,-8.424931120454646e-258,-1.3956577647442892,0.0,-9.11595922132132e-257,-0.1623480289769219,0.0,70.0,255.0,255.0,255.0
50,2.5,-5.000000000000011,-4.483496783469351e-259,-2.2861013053681942,0.0,-1.2425030760524581e-257,-1.4034021065154123,0.0,-3.296437635084115e-257,-0.14734800361413392,0.0,70.0,255.0,255.0,255.0
51,2.5500000000000003,-5.000000000000011,-1.1392021664403557e-258,-2.35645564690327,0.0,-1.1721368755538761e-257,-1.4103925651057025,0.0,9.107419227448096e-257,-0.13220513341756224,0.0,70.0,255.0,255.0,255.0
52,2.6,-5.000000000000011,-1.6204865539008112e-258,-2.4271405618787645,0.0,-3.3176115330764837e-258,-1.4166226198571685,0.0,2.4070991865142886e-256,-0.11697533087033918,0.0,70.0,255.0,255.0,255.0
53,2.6500000000000004,-5.000000000000011,-1.470963319748004e-258,-2.498117908888987,0.0,1.2349623109604128e-257,-1.4220900981927365,0.0,3.4759882522823094e-256,-0.1017544773668444,0.0,70.0,255.0,255.0,255.0
54,2.7,-5.000000000000011,-3.8552424294039827e-259,-2.569349571698038,0.0,3.1442270989746614e-257,-1.426798067593853,0.0,3.4021222972097883e-256,-0.086643457886737,0.0,70.0,255.0,255.0,255.0
55,2.75,-5.000000000000011,1.6732637792266576e-258,-2.640797715648372,0.0,4.637084608170201e-257,-1.4307544439814102,0.0,1.2302472738694968e-256,-0.07172798982160167,0.0,70.0,255.0,255.0,255.0
56,2.8000000000000003,-5.000000000000011,4.251560365229803e-258,-2.712425016096179,0.0,4.374474372844158e-257,-1.4339708665760131,0.0,-3.398935128106518e-256,-0.05705027949280961,0.0,70.0,255.0,255.0,255.0
57,2.85,-5.000000000000011,6.047738152070816e-258,-2.7841948023059735,0.0,1.2381494800636825e-257,-1.4364594719306911,0.0,-8.983416462765482e-256,-0.04259385753293543,0.0,70.0,255.0,255.0,255.0
58,2.9000000000000004,-5.000000000000011,5.489709845293486e-258,-2.8560709632892483,0.0,-4.608942089921324e-257,-1.4382302523293067,0.0,-1.297256476391686e-255,-0.028308938820265084,0.0,70.0,255.0,255.0,255.0
59,2.95,-5.000000000000011,1.4387960621494912e-258,-2.928017827538904,0.0,-1.173441528385318e-256,-1.4392903658127176,0.0,-1.2696893266707024e-255,-0.014131939009809358,0.0,70.0,255.0,255.0,255.0
60,3.0,-5.000000000000011,-6.244705438559694e-258,-2.99999999987052,0.0,-1.730583535662835e-256,-1.4396434462302876,0.0,-4.5913453319695755e-256,9.520428889686627e-09,0.0,70.0,255.0,255.0,255.0
61,3.0500000000000003,-5.000000000000011,-1.5867039294478858e-257,-3.071982172161933,0.0,-1.6325760615822756e-256,-1.4392903648606747,0.0,1.2684998589681267e-255,0.014131939034456309,0.0,70.0,255.0,255.0,255.0
62,3.1,-5.000000000000011,-2.2570466054382452e-257,-3.1439290363565875,0.0,-4.620836766947082e-257,-1.438230252326842,0.0,3.352656666454764e-255,0.028308896200490707,0.0,70.0,255.0,255.0,255.0
63,3.1500000000000004,-5.000000000000011,-2.048787606142594e-257,-3.215805197394617,0.0,1.7200806048724888e-256,-1.4364594752406257,0.0,4.841427080338513e-255,0.042593775771315734,0.0,70.0,255.0,255.0,255.0
64,3.2,-5.000000000000011,-5.369660005657561e-258,-3.28757498388065,0.0,4.379343403643805e-256,-1.4339708747497104,0.0,4.738545076961828e-255,0.0570501882848351,0.0,70.0,255.0,255.0,255.0
65,3.25,-5.000000000000011,2.330555797501212e-257,-3.359202284869588,0.0,6.458625681834317e-256,-1.4307544564121422,0.0,1.71351340540088e-255,0.07172795174006374,0.0,70.0,255.0,255.0,255.0
66,3.3000000000000003,-5.000000000000011,5.9216596812685616e-257,-3.4306504295218643,0.0,6.092856809044685e-256,-1.426798079575704,0.0,-4.734105923061851e-255,0.08664354899607929,0.0,70.0,255.0,255.0,255.0
67,3.35,-5.000000000000011,8.423412606545898e-257,-3.5018820928271586,0.0,1.7245197587724648e-256,-1.4220901015125342,0.0,-1.2512285019542507e-254,0.10175472960716192,0.0,70.0,255.0,255.0,255.0
68,3.4000000000000004,-5.000000000000011,7.646179440041026e-257,-3.5728594396731177,0.0,-6.419428210497823e-256,-1.4166226066149878,0.0,-1.806845184496237e-254,0.11697570053668116,0.0,70.0,255.0,255.0,255.0
69,3.45,-5.000000000000011,2.003984396048075e-257,-3.6435443534886574,0.0,-1.6343932086189903e-255,-1.4103925314588661,0.0,-1.7684490981176607e-254,0.13220549822507977,0.0,70.0,255.0,255.0,255.0
70,3.5,-5.000000000000011,-8.697752646148878e-257,-3.7138986928190043,0.0,-2.4103919191674432e-255,-1.4034020567924799,0.0,-6.394919088406566e-255,0.1473481368992502,0.0,70.0,255.0,255.0,255.0
71,3.5500000000000003,-5.000000000000011,-2.2099934795626362e-256,-3.7838845591679053,0.0,-2.273885117459647e-255,-1.395657717768941,0.0,1.766792383327928e-254,0.16234766451477256,0.0,70.0,255.0,255.0,255.0
72,3.6,-5.000000000000011,-3.1436603820745346e-256,-3.8534644645958984,0.0,-6.435995358395152e-256,-1.3871672903410026,0.0,4.669648341171527e-254,0.17719582173452153,0.0,70.0,255.0,255.0,255.0
73,3.6500000000000004,-5.000000000000011,-2.8535930154021514e-256,-3.9226012882020056,0.0,2.39576322371188e-255,-1.377938135595489,0.0,6.7432380299510974e-254,0.19189894655760042,0.0,70.0,255.0,255.0,255.0
74,3.7,-5.000000000000011,-7.478971583626546e-257,-3.9912582781554473,0.0,6.099638494111582e-255,-1.3679773956852426,0.0,6.599941884774447e-254,0.20646833163553424,0.0,70.0,255.0,255.0,255.0
75,3.75,-5.000000000000011,3.2460454787094306e-256,-4.05939902777053,0.0,8.995705108486327e-255,-1.3572913024319355,0.0,2.386616294822557e-254,0.22092350998699217,0.0,70.0,255.0,255.0,255.0
76,3.8000000000000003,-5.000000000000011,8.247807950123673e-256,-4.126987408398641,0.0,8.486254788934139e-255,-1.3458850446865434,0.0,-6.593758941005479e-254,0.2352847673040337,0.0,70.0,255.0,255.0,255.0
77,3.85,-5.000000000000011,1.173230026764357e-255,-4.193987532239184,0.0,2.4019461674808486e-255,-1.3337628257015322,0.0,-1.742736486273188e-253,0.24958282261575704,0.0,70.0,255.0,255.0,255.0
78,3.9000000000000004,-5.000000000000011,1.0649754117604522e-255,-4.260363690968794,0.0,-8.941110073797741e-255,-1.3209267624249676,0.0,-2.5166106935308185e-253,0.2638693523934421,0.0,70.0,255.0,255.0,255.0
79,3.95,-5.000000000000011,2.791190193845829e-256,-4.326080208481681,0.0,-2.276416076782734e-254,-1.307375890462188,0.0,-2.4631318440980132e-253,0.2782068628783385,0.0,70.0,255.0,255.0,255.0
80,4.0,-5.000000000000011,-1.211440665022282e-255,-4.391101280015013,0.0,-3.357242851477787e-254,-1.2931060761371338,0.0,-8.90697327044958e-254,0.29265386044867725,0.0,70.0,255.0,255.0,255.0
81,4.05,-5.000000000000011,-3.0781238320932047e-255,-4.455390816095394,0.0,-3.167113403827692e-254,-1.2781105044173202,0.0,2.4608243380693995e-253,0.30723997955632854,0.0,70.0,255.0,255.0,255.0
82,4.1000000000000005,-5.000000000000011,-4.378554068849974e-255,-4.518912330456745,0.0,-8.964185134083876e-255,-1.262382078181501,0.0,6.5039811109756e-253,0.3219501838401584,0.0,70.0,255.0,255.0,255.0
83,4.15,-5.000000000000011,-3.9745423455015924e-255,-4.581629023913544,0.0,3.336867707147908e-254,-1.2459154860333044,0.0,9.392118971128163e-253,0.3367463478302746,0.0,70.0,255.0,255.0,255.0
84,4.2,-5.000000000000011,-1.0416863617020661e-255,-4.643503879060075,0.0,8.495700457719776e-254,-1.2287074433984735,0.0,9.192533187914606e-253,0.35158421685075325,0.0,70.0,255.0,255.0,255.0
85,4.25,-5.000000000000011,4.521158112218183e-255,-4.704499768253392,0.0,1.2529400895062515e-253,-1.210757064348229,0.0,3.3241276786975775e-253,0.3664170388945287,0.0,70.0,255.0,255.0,255.0
86,4.3,-5.000000000000011,1.148771453336045e-254,-4.764579585494898,0.0,1.1819828136417353e-253,-1.1920657395090206,0.0,-9.183921458177045e-253,0.3812158272914701,0.0,70.0,255.0,255.0,255.0
87,4.3500000000000005,-5.000000000000011,1.6340986248635536e-254,-4.823706342204294,0.0,3.3454794368854685e-254,-1.172635481619082,0.0,-2.427318795762921e-252,0.39597737442509384,0.0,70.0,255.0,255.0,255.0
88,4.4,-5.000000000000011,1.4833193970245918e-254,-4.881843133656806,0.0,-1.2453359821211856e-253,-1.1524680020665112,0.0,-3.505186519098184e-252,0.4107034847228519,0.0,70.0,255.0,255.0,255.0
89,4.45,-5.000000000000011,3.8876264274236793e-255,-4.938953142410945,0.0,-3.1706385754096374e-253,-1.1315651331467969,0.0,-3.430700090756059e-252,0.4253900692520851,0.0,70.0,255.0,255.0,255.0
90,4.5,-5.000000000000011,-1.6873191783850455e-254,-4.994999646971486,0.0,-4.676036072877245e-253,-1.1099289951413027,0.0,-1.2405813387745293e-252,0.44002595600201033,0.0,70.0,255.0,255.0,255.0
91,4.55,-5.000000000000011,-4.2872734301348775e-254,-5.049946041925075,0.0,-4.411219914184167e-253,-1.0875625375465958,0.0,3.4274861494639376e-252,0.4546099979911844,0.0,70.0,255.0,255.0,255.0
92,4.6000000000000005,-5.000000000000011,-6.098539092569213e-254,-5.103755900726146,0.0,-1.2485499234133067e-253,-1.0644679953421843,0.0,9.05887707195415e-252,0.46918031845981645,0.0,70.0,255.0,255.0,255.0
93,4.65,-5.000000000000011,-5.535823353548184e-254,-5.156392841459294,0.0,4.647657157769984e-253,-1.0406445057006142,0.0,1.3081534179279895e-251,0.4837997132783656,0.0,70.0,255.0,255.0,255.0
94,4.7,-5.000000000000011,-1.4508819347992286e-254,-5.207820351296207,0.0,1.183298425586659e-252,-1.0160880240143477,0.0,1.2803547044232751e-251,0.4985355061404739,0.0,70.0,255.0,255.0,255.0
95,4.75,-5.000000000000011,6.297160902318407e-254,-5.258001643860728,0.0,1.7451204202002737e-252,-0.9907909550865668,0.0,4.629912587228344e-252,0.5134791370975833,0.0,70.0,255.0,255.0,255.0
96,4.800000000000001,-5.000000000000011,1.600032226720351e-253,-5.306899446804864,0.0,1.6462896843094934e-252,-0.9647401103045894,0.0,-1.2791552452038056e-251,0.5286641807432879,0.0,70.0,255.0,255.0,255.0
97,4.8500000000000005,-5.000000000000011,2.2760057745413342e-253,-5.354475654891187,0.0,4.6596517499646787e-253,-0.937924537012238,0.0,-3.3808189492053694e-251,0.5439413517350999,0.0,70.0,255.0,255.0,255.0
98,4.9,-5.000000000000011,2.0659974017168188e-253,-5.400691900506088,0.0,-1.7345292648958763e-252,-0.9103459751310794,0.0,-4.882095019802143e-251,0.5590576621643528,0.0,70.0,255.0,255.0,255.0
99,4.95,-5.000000000000011,5.414765096454579e-254,-5.445510252404295,0.0,-4.416129844805675e-252,-0.8820187707958027,0.0,-4.778348808617496e-251,0.5737546194731991,0.0,70.0,255.0,255.0,255.0
100,5.0,-5.000000000000011,-2.3501324430888564e-253,-5.488893777585668,0.0,-6.512878073513372e-252,-0.8529705131837595,0.0,-1.7279069010138829e-251,0.5877095235792495,0.0,70.0,255.0,255.0,255.0
101,5.050000000000001,-5.000000000000011,-5.971401563867915e-253,-5.530807303722671,0.0,-6.144036745819558e-252,-0.8232478184378778,0.0,4.77387236586883e-251,0.600799479501557,0.0,70.0,255.0,255.0,255.0
102,5.1000000000000005,-5.000000000000011,-8.494169188908415e-253,-5.571218559429456,0.0,-1.7390057076445413e-252,-0.7928905652336038,0.0,1.2617388089626064e-250,0.6134960461615435,0.0,70.0,255.0,255.0,255.0
103,5.15,-5.000000000000011,-7.710407271512456e-253,-5.610096360246032,0.0,6.473351343806504e-252,-0.7618982138217234,0.0,1.8220226661280583e-250,0.6266087056634007,0.0,70.0,255.0,255.0,255.0
104,5.2,-5.000000000000011,-2.0208178451019102e-253,-5.647408380811628,0.0,1.6481220953636042e-251,-0.7302296946672637,0.0,1.7833040530046716e-250,0.6409855031469291,0.0,70.0,255.0,255.0,255.0
105,5.25,-5.000000000000011,8.770813682123585e-253,-5.683119329712758,0.0,2.4306391873853222e-251,-0.6977996635070305,0.0,6.448636345332689e-251,0.6577267779097618,0.0,70.0,255.0,255.0,255.0
106,5.300000000000001,-5.000000000000011,2.228557402875131e-252,-5.717188347162331,0.0,2.292985729896873e-251,-0.6644570168762876,0.0,-1.7816334218271525e-250,0.6772579012499946,0.0,70.0,255.0,255.0,255.0
107,5.3500000000000005,-5.000000000000011,3.170067098109232e-252,-5.749565031400387,0.0,6.490057655581694e-252,-0.630073873382031,0.0,-4.708873340929887e-250,0.6979517596560569,0.0,70.0,255.0,255.0,255.0
108,5.4,-5.000000000000011,2.8775631684333006e-252,-5.780195734500534,0.0,-2.4158876110330135e-251,-0.5946618409106819,0.0,-6.799881162532016e-250,0.7170302191449096,0.0,70.0,255.0,255.0,255.0
109,5.45,-5.000000000000011,7.541794870762181e-253,-5.809031215491455,0.0,-6.150875396973848e-251,-0.5583708514675401,0.0,-6.655381331156934e-250,0.731576654652244,0.0,70.0,255.0,255.0,255.0
110,5.5,-5.000000000000011,-3.2733122285405477e-252,-5.836032819647288,0.0,-9.071268942189948e-251,-0.5215041754454575,0.0,-2.4066638480316893e-250,0.7376873274852258,0.0,70.0,255.0,255.0,255.0
111,5.550000000000001,-5.000000000000011,-8.317089455113731e-252,-5.861181633036001,0.0,-8.557539245005537e-251,-0.4846021187190175,0.0,6.649146450721723e-250,0.7338832278524166,0.0,70.0,255.0,255.0,255.0
112,5.6000000000000005,-5.000000000000011,-1.1830851473546085e-251,-5.88449303151919,0.0,-2.4221224914682243e-251,-0.4481158526602158,0.0,1.7573754554756939e-249,0.7262560760540993,0.0,70.0,255.0,255.0,255.0
113,5.65,-5.000000000000011,-1.0739211946581955e-251,-5.905993218302022,0.0,9.016215309751402e-251,-0.41197651111360756,0.0,2.537750198400002e-249,0.7251495785966178,0.0,70.0,255.0,255.0,255.0
114,5.7,-5.000000000000011,-2.814636163794682e-252,-5.925690682630551,0.0,2.2955379492531796e-250,-0.37560089480055403,0.0,2.4838221271623076e-249,0.7412747780105811,0.0,70.0,255.0,255.0,255.0
115,5.75,-5.000000000000011,1.2216167545949839e-251,-5.943553307782078,0.0,3.385443658137448e-250,-0.33784903331254945,0.0,8.981791757593484e-250,0.7885954273001872,0.0,70.0,255.0,255.0,255.0
116,5.800000000000001,-5.000000000000011,3.10398004175798e-251,-5.959475585961806,0.0,3.193717125012528e-250,-0.2967413520705353,0.0,-2.481495238105975e-249,0.8723832665944897,0.0,70.0,255.0,255.0,255.0
117,5.8500000000000005,-5.000000000000011,4.415333879607512e-251,-5.973227442989131,0.0,9.039484200314723e-251,-0.2506107066531005,0.0,-6.558614487809788e-249,0.9711982951020381,0.0,70.0,255.0,255.0,255.0
118,5.9,-5.000000000000011,4.007928461789452e-251,-5.984536656627116,0.0,-3.364897362797261e-250,-0.1996215225603315,0.0,-9.471012677346802e-249,1.0485036809206427,0.0,70.0,255.0,255.0,255.0
119,5.95,-5.000000000000011,1.0504365168102505e-251,-5.993189595245164,0.0,-8.567064257315329e-250,-0.1457603385610362,0.0,-9.26975037553353e-249,1.0701676831896378,0.0,70.0,255.0,255.0,255.0
120,6.0,-5.000000000000011,-4.5591357955258766e-251,-5.999112690483219,0.0,-1.2634647738330791e-249,-0.09260475424136771,0.0,-3.352050318234221e-249,1.0051639703069881,0.0,70.0,255.0,255.0,255.0
121,6.050000000000001,-5.000000000000011,-1.1584211221520542e-250,-6.002450070669301,0.0,-1.191911457554955e-249,-0.045243941530337395,0.0,9.261066307351724e-249,0.8405840787297336,0.0,70.0,255.0,255.0,255.0
122,6.1000000000000005,-5.000000000000011,-1.6478250371075428e-250,-6.003637084636253,0.0,-3.3735814309790665e-250,-0.008546346368394353,0.0,2.4477082495763444e-248,0.6007590419062403,0.0,70.0,255.0,255.0,255.0
123,6.15,-5.000000000000011,-1.495779265249961e-250,-6.003304705306141,0.0,1.2557967920213897e-249,0.014831962660286635,0.0,3.5346300510987212e-248,0.33266264410745094,0.0,70.0,255.0,255.0,255.0
124,6.2,-5.000000000000011,-3.920282450861531e-251,-6.002153888370224,0.0,3.1972719080008146e-249,0.02471991804235074,0.0,3.4595179374971832e-248,0.0862551419118951,0.0,70.0,255.0,255.0,255.0
125,6.25,-5.000000000000011,1.7014926427508537e-250,-6.0008327135019055,0.0,4.715314729518573e-249,0.023457476851476144,0.0,1.2510022097177553e-248,-0.09072412904096439,0.0,70.0,255.0,255.0,255.0
126,6.300000000000001,-5.000000000000011,4.3232864844324204e-250,-5.999808140685077,0.0,4.44827411771857e-249,0.015647505138254303,0.0,-3.4562769991300933e-248,-0.1731158519096887,0.0,70.0,255.0,255.0,255.0
127,6.3500000000000005,-5.000000000000011,6.149766760469424e-250,-5.99926796298808,0.0,1.2590377303884796e-249,0.006145891660507274,0.0,-9.134971549524406e-248,-0.17298541843748794,0.0,70.0,255.0,255.0,255.0
128,6.4,-5.000000000000011,5.5823242148209e-250,-5.999193551519026,0.0,-4.686697431805835e-249,-0.0016510367054944908,0.0,-1.3191418936660201e-247,-0.11979127366785747,0.0,70.0,255.0,255.0,255.0
129,6.45,-5.000000000000011,1.4630693286635888e-250,-5.9994330666586295,0.0,-1.1932381206271722e-248,-0.005833235706278472,0.0,-1.2911096712435381e-247,-0.04532382193307427,0.0,70.0,255.0,255.0,255.0
130,6.5,-5.000000000000011,-6.350056991450823e-250,-5.999776875089654,0.0,-1.7597794144241215e-248,-0.006183418898801918,0.0,-4.6688038070476036e-248,0.016404993409224744,0.0,70.0,255.0,255.0,255.0
131,6.550000000000001,-5.000000000000011,-1.6134724815577627e-249,-6.00005140854851,0.0,-1.6601185013319326e-248,-0.004192736365355998,0.0,1.2899001365785205e-247,0.04536632191589618,0.0,70.0,255.0,255.0,255.0
132,6.6000000000000005,-5.000000000000011,-2.295124200477015e-249,-6.0001961487261894,0.0,-4.698792778456009e-249,-0.0016467867072123,0.0,3.409217794852128e-247,0.046351303172631475,0.0,70.0,255.0,255.0,255.0
133,6.65,-5.000000000000011,-2.0833517594033636e-249,-6.000216087219231,0.0,1.7490992935201957e-248,0.0004423939519071496,0.0,4.9231045695542085e-247,0.03209797503975764,0.0,70.0,255.0,255.0,255.0
134,6.7,-5.000000000000011,-5.460249069568193e-250,-6.000151909330999,0.0,4.453225291708607e-248,0.0015630107967634643,0.0,4.818486891224431e-247,0.012144481484810399,0.0,70.0,255.0,255.0,255.0
135,6.75,-5.000000000000011,2.369873532305244e-249,-6.000059786139555,0.0,6.567586184744627e-248,0.0016568421003881895,0.0,1.7424213018472654e-247,-0.004395704735848938,0.0,70.0,255.0,255.0,255.0
136,6.800000000000001,-5.000000000000011,6.021561277787808e-249,-5.99998622512096,0.0,6.195646593555873e-248,0.0011234403231785706,0.0,-4.81397284640107e-247,-0.012155869320729096,0.0,70.0,255.0,255.0,255.0
137,6.8500000000000005,-5.000000000000011,8.565520125861116e-249,-5.999947442107237,0.0,1.753613338343556e-248,0.0004412551683152799,0.0,-1.2723374024456068e-246,-0.012419794253393235,0.0,70.0,255.0,255.0,255.0
138,6.9,-5.000000000000011,7.775174616131364e-249,-5.999942099604128,0.0,-6.5277274309001954e-248,-0.00011853910216075292,0.0,-1.837327638455081e-246,-0.008600626490640195,0.0,70.0,255.0,255.0,255.0
139,6.95,-5.000000000000011,2.0377926949609204e-249,-5.999959296017453,0.0,-1.6619663046207258e-247,-0.00041880748074873964,0.0,-1.7982837893654192e-246,-0.0032541040061673243,0.0,70.0,255.0,255.0,255.0
140,7.0,-5.000000000000011,-8.844488430075896e-249,-5.999983980352203,0.0,-2.4510565324554388e-247,-0.00044394950277748535,0.0,-6.502804826684302e-247,0.0011778255339933708,0.0,70.0,255.0,255.0,255.0
141,7.050000000000001,-5.000000000000011,-2.247277262959347e-248,-6.000003690967731,0.0,-2.312246787289156e-247,-0.00030102492734940256,0.0,1.7965991249025761e-246,0.0032571553676419285,0.0,70.0,255.0,255.0,255.0
142,7.1000000000000005,-5.000000000000011,-3.1966956302967457e-248,-6.000014082844938,0.0,-6.544574075528625e-248,-0.0001182339660132925,0.0,4.748427830297215e-246,0.003327873840497375,0.0,70.0,255.0,255.0,255.0
143,7.15,-5.000000000000011,-2.9017346705122093e-248,-6.000015514364332,0.0,2.4361810430080595e-247,3.176245670033495e-05,0.0,6.857000096864905e-246,0.0023045309227143207,0.0,70.0,255.0,255.0,255.0
144,7.2,-5.000000000000011,-7.605145872886858e-249,-6.000010906599268,0.0,6.202542689312044e-247,0.00011221912625813957,0.0,6.711286468339235e-246,0.0008719345403918055,0.0,70.0,255.0,255.0,255.0
145,7.25,-5.000000000000011,3.300808018799835e-248,-6.000004292451706,0.0,9.147467511347294e-247,0.0001189559107395155,0.0,2.426879800488991e-246,-0.00031559740083508814,0.0,70.0,255.0,255.0,255.0
146,7.300000000000001,-5.000000000000011,8.386952924058608e-248,-5.999999011008194,0.0,8.629422489801035e-247,8.065938617463075e-05,0.0,-6.704999214970201e-246,-0.0008727521502827074,0.0,70.0,255.0,255.0,255.0
147,7.3500000000000005,-5.000000000000011,1.193023050860087e-247,-5.999996226513089,0.0,2.4424682963770942e-247,3.1680695711244766e-05,0.0,-1.7721373918743256e-245,-0.0008917011079745407,0.0,70.0,255.0,255.0,255.0
148,7.4,-5.000000000000011,1.0829421220435702e-247,-5.999995842938623,0.0,-9.09195142894222e-247,-8.510724622823318e-06,0.0,-2.559067274900454e-245,-0.0006174971996841805,0.0,70.0,255.0,255.0,255.0
149,7.45,-5.000000000000011,2.83827907965865e-248,-5.999997077585551,0.0,-2.3148204452627446e-246,-3.0069024257173282e-05,0.0,-2.504686208399151e-245,-0.0002336341559328048,0.0,70.0,255.0,255.0,255.0
150,7.5,-5.000000000000011,-1.2318783232191744e-247,-5.999998849841049,0.0,-3.413881351293373e-246,-3.18741402161038e-05,0.0,-9.057238719287533e-246,8.45640687252569e-05,0.0,70.0,255.0,255.0,255.0
151,7.550000000000001,-5.000000000000011,-3.130053443327508e-247,-6.0000002649995725,0.0,-3.220544317191498e-246,-2.1612617384647592e-05,0.0,2.502339773497821e-245,0.00023385323393299018,0.0,70.0,255.0,255.0,255.0
152,7.6000000000000005,-5.000000000000011,-4.4524226404106726e-247,-6.000001011102787,0.0,-9.115415777955518e-247,-8.488816822804779e-06,0.0,6.6137067844675785e-245,0.00023893059175605913,0.0,70.0,255.0,255.0,255.0
153,7.65,-5.000000000000011,-4.04159502112306e-247,-6.000001113881255,0.0,3.39316246727608e-246,2.2804417909583208e-06,0.0,9.550569089915325e-245,0.00016545787584476557,0.0,70.0,255.0,255.0,255.0
154,7.7,-5.000000000000011,-1.0592601731345925e-247,-6.000000783058608,0.0,8.639027512119774e-246,8.056970761671778e-06,0.0,9.347616186762685e-245,6.260208342823148e-05,0.0,70.0,255.0,255.0,255.0
155,7.75,-5.000000000000011,4.597432490996715e-247,-6.000000308184179,0.0,1.2740778654038765e-245,8.540650133781469e-06,0.0,3.380207507666072e-245,-2.2658873799485946e-05,0.0,70.0,255.0,255.0,255.0
156,7.800000000000001,-5.000000000000011,1.1681518480904172e-246,-5.999999928993595,0.0,1.2019235019785846e-245,5.791083381723183e-06,0.0,-9.338859172494257e-245,-6.266078518279983e-05,0.0,70.0,255.0,255.0,255.0
157,7.8500000000000005,-5.000000000000011,1.6616667510782562e-246,-5.9999997290758404,0.0,3.4019194815445087e-246,2.274571615501486e-06,0.0,-2.4682689745995908e-244,-6.402125922733148e-05,0.0,70.0,255.0,255.0,255.0
158,7.9,-5.000000000000011,1.508343796244868e-246,-5.999999701536433,0.0,-1.266345472621006e-245,-6.110425410099651e-07,0.0,-3.564320908476078e-244,-4.4334304316606676e-05,0.0,70.0,255.0,255.0,255.0
159,7.95,-5.000000000000011,3.953212784572503e-247,-5.9999997901800945,0.0,-3.224128960321627e-245,-2.1588588161591815e-06,0.0,-3.488577853865147e-244,-1.6774177691303294e-05,0.0,70.0,255.0,255.0,255.0
160,8.0,-5.000000000000011,-1.7157851640767593e-246,-5.999999917422315,0.0,-4.754923326486153e-245,-2.2884603101402945e-06,0.0,-1.2615106158735517e-244,6.071427094411774e-06,0.0,70.0,255.0,255.0,255.0
161,8.05,-5.000000000000011,-4.3596020480289024e-246,-6.000000019026126,0.0,-4.485639576195179e-245,-1.551716106718004e-06,0.0,3.485309691647912e-244,1.6789906887026973e-05,0.0,70.0,255.0,255.0,255.0
162,8.1,-5.000000000000011,-6.201424740271938e-246,-6.0000000725939255,0.0,-1.2696136348382408e-245,-6.094696214375972e-07,0.0,9.211705219951596e-244,1.7154444531541913e-05,0.0,70.0,255.0,255.0,255.0
163,8.15,-5.000000000000011,-5.629215682867143e-246,-6.000000079973088,0.0,4.726065643756417e-245,1.6372834643618717e-07,0.0,1.3302226724912766e-243,1.1879340977571928e-05,0.0,70.0,255.0,255.0,255.0
164,8.200000000000001,-5.000000000000011,-1.4753590965155216e-246,-6.000000056221091,0.0,1.2032613090074525e-244,5.784644763195956e-07,0.0,1.3019549796784305e-243,4.4946274257995356e-06,0.0,70.0,255.0,255.0,255.0
165,8.25,-5.000000000000011,6.403397407207383e-246,-6.00000002212664,0.0,1.7745615440540722e-244,6.131910890161407e-07,0.0,4.7080217127275917e-244,-1.6268339564362577e-06,0.0,70.0,255.0,255.0,255.0
166,8.3,-5.000000000000011,1.62702563440252e-245,-5.999999994901982,0.0,1.6740634802802117e-244,4.1578108067596986e-07,0.0,-1.3007352849342214e-243,-4.498841921218855e-06,0.0,70.0,255.0,255.0,255.0
167,8.35,-5.000000000000011,2.31440322100095e-245,-5.999999980548532,0.0,4.738262591198508e-245,1.6330689689425526e-07,0.0,-3.437855190520679e-243,-4.596519698196744e-06,0.0,70.0,255.0,255.0,255.0
168,8.4,-5.000000000000011,2.100851893522371e-245,-5.999999978571292,0.0,-1.7637917102404675e-244,-4.387088914370452e-08,0.0,-4.964458599117499e-243,-3.1830598601345628e-06,0.0,70.0,255.0,255.0,255.0
169,8.450000000000001,-5.000000000000011,5.506115107604826e-246,-5.999999984935621,0.0,-4.490632339997648e-244,-1.5499908911920102e-07,0.0,-4.858962133327204e-243,-1.2043316566234807e-06,0.0,70.0,255.0,255.0,255.0
170,8.5,-5.000000000000011,-2.3897804464752776e-245,-5.999999994071201,0.0,-6.622753843567673e-244,-1.643040548060526e-07,0.0,-1.7570576235036795e-243,4.359089089689405e-07,0.0,70.0,255.0,255.0,255.0
171,8.55,-5.000000000000011,-6.07214233280719e-245,-6.000000001366026,0.0,-6.247689963501327e-244,-1.1140819822230696e-07,0.0,4.854410170572096e-243,1.2054610643019714e-06,0.0,70.0,255.0,255.0,255.0
172,8.6,-5.000000000000011,-8.637470409976606e-245,-6.000000005212021,0.0,-1.768343672995577e-244,-4.375794837585545e-08,0.0,1.2830250240087552e-242,1.2316336395201688e-06,0.0,70.0,255.0,255.0,255.0
173,8.65,-5.000000000000011,-7.840486005802767e-245,-6.000000005741821,0.0,6.582560276586226e-244,1.1755165729709915e-08,0.0,1.8527611723978717e-242,8.528982853306388e-07,0.0,70.0,255.0,255.0,255.0
174,8.700000000000001,-5.000000000000011,-2.05491013339038e-245,-6.0000000040365045,0.0,1.6759268050983141e-243,4.1531880157208434e-08,0.0,1.8133893553630398e-242,3.2269964478359725e-07,0.0,70.0,255.0,255.0,255.0
175,8.75,-5.000000000000011,8.918782045180373e-245,-6.000000001588633,0.0,2.4716453830216625e-243,4.402513020806964e-08,0.0,6.557428322741962e-243,-1.1680132416813649e-07,0.0,70.0,255.0,255.0,255.0
176,8.8,-5.000000000000011,2.2661543696826245e-244,-5.999999999633991,0.0,2.3316696373725103e-243,2.9851747740394785e-08,0.0,-1.8116905397354166e-242,-3.230021583533471e-07,0.0,70.0,255.0,255.0,255.0
177,8.85,-5.000000000000011,3.223547841890548e-244,-5.9999999986034585,0.0,6.599548432862457e-244,1.172491437273493e-08,0.0,-4.788314576982954e-242,-3.3001539279098324e-07,0.0,70.0,255.0,255.0,255.0
178,8.9,-5.000000000000011,2.9261092129688703e-244,-5.9999999984615,0.0,-2.4566449396104447e-243,-3.149791538703539e-09,0.0,-6.914598829679734e-242,-2.2853345882367648e-07,0.0,70.0,255.0,255.0,255.0
179,8.950000000000001,-5.000000000000011,7.669029022801032e-245,-5.999999998918438,0.0,-6.254643986393489e-243,-1.1128431509632719e-08,0.0,-6.767661208119432e-242,-8.646718896443417e-08,0.0,70.0,255.0,255.0,255.0
180,9.0,-5.000000000000011,-3.328534773424619e-244,-5.999999999574343,0.0,-9.224306147729878e-243,-1.1796510435146956e-08,0.0,-2.44726556674642e-242,3.129683179281528e-08,0.0,70.0,255.0,255.0,255.0
181,9.05,-5.000000000000011,-8.457403245449774e-244,-6.000000000098089,0.0,-8.701909553139909e-243,-7.99874833035119e-09,0.0,6.761321141884449e-242,8.654845728983673e-08,0.0,70.0,255.0,255.0,255.0
182,9.1,-5.000000000000011,-1.203044432656453e-243,-6.000000000374218,0.0,-2.4629850058454277e-243,-3.141664706163283e-09,0.0,1.7870233283923066e-241,8.842730991887038e-08,0.0,70.0,255.0,255.0,255.0
183,9.15,-5.000000000000011,-1.0920388251295202e-243,-6.000000000412255,0.0,9.168323730783156e-243,8.43982661535847e-10,0.0,2.5805634146321074e-241,6.123510587485725e-08,0.0,70.0,255.0,255.0,255.0
184,9.200000000000001,-5.000000000000011,-2.862120595781372e-244,-6.00000000028982,0.0,2.334264914047565e-242,2.9818458813224424e-09,0.0,2.52572554771147e-241,2.3168844620613527e-08,0.0,70.0,255.0,255.0,255.0
185,9.25,-5.000000000000011,1.2422260889180447e-243,-6.0000000001140705,0.0,3.4425579207897857e-242,3.1608671235971997e-09,0.0,9.133319434711684e-242,-8.385825367440702e-09,0.0,70.0,255.0,255.0,255.0
186,9.3,-5.000000000000011,3.1563458612116485e-243,-5.999999999973733,0.0,3.2475968575187332e-242,2.143263344578372e-09,0.0,-2.523359402780246e-241,-2.319060499189618e-08,0.0,70.0,255.0,255.0,255.0
187,9.35,-5.000000000000011,4.4898229464367783e-243,-5.999999999899744,0.0,9.191985180095399e-243,8.418066244075817e-10,0.0,-6.669261855870997e-241,-2.369411333802418e-08,0.0,70.0,255.0,255.0,255.0
188,9.4,-5.000000000000011,4.0755443792211883e-243,-5.999999999889552,0.0,-3.4216649983522647e-242,-2.2614798922404589e-10,0.0,-9.630793775560485e-241,-1.6408030489856174e-08,0.0,70.0,255.0,255.0,255.0
189,9.450000000000001,-5.000000000000011,1.0681579480845132e-243,-5.999999999922359,0.0,-8.711595257550945e-242,-7.989964245780357e-10,0.0,-9.426136070033914e-241,-6.208011882335995e-09,0.0,70.0,255.0,255.0,255.0
190,9.5,-5.000000000000011,-4.636050878329757e-243,-5.999999999969452,0.0,-1.284780106838618e-241,-8.469491774576454e-10,0.0,-3.4086012172100066e-241,2.247180219683287e-09,0.0,70.0,255.0,255.0,255.0
191,9.55,-5.000000000000011,-1.1779643120301666e-242,-6.000000000007054,0.0,-1.2120196474760952e-241,-5.74278402609707e-10,0.0,9.417305496932563e-241,6.213785042064046e-09,0.0,70.0,255.0,255.0,255.0
192,9.600000000000001,-5.000000000000011,-1.675624735309071e-242,-6.00000000002688,0.0,-3.4304955714536155e-242,-2.255706732512408e-10,0.0,2.4890024095091703e-240,6.348699344016495e-09,0.0,70.0,255.0,255.0,255.0
193,9.65,-5.000000000000011,-1.5210138691755281e-242,-6.000000000029611,0.0,1.276982762033075e-241,6.059153179194254e-11,0.0,3.594261168760983e-240,4.39657199535759e-09,0.0,70.0,255.0,255.0,255.0
194,9.700000000000001,-5.000000000000011,-3.9864197327599584e-243,-6.000000000020821,0.0,3.251211611615622e-241,2.1408652628451819e-10,0.0,3.517881873242419e-240,1.6635581800983346e-09,0.0,70.0,255.0,255.0,255.0
195,9.75,-5.000000000000011,1.7301977424400942e-242,-6.000000000008202,0.0,4.7948646352754944e-241,2.26947349801776e-10,0.0,1.2721072925368893e-240,-6.020961507147149e-10,0.0,70.0,255.0,255.0,255.0
196,9.8,-5.000000000000011,4.396222661999499e-242,-5.999999999998126,0.0,4.5233189041525115e-241,1.538769112130467e-10,0.0,-3.514586258495e-240,-1.6651569012537948e-09,0.0,70.0,255.0,255.0,255.0
197,9.850000000000001,-5.000000000000011,6.253516646592606e-242,-5.999999999992815,0.0,1.2802783767804942e-241,6.043165967639652e-11,0.0,-9.289083452449586e-240,-1.7010393094096798e-09,0.0,70.0,255.0,255.0,255.0
198,9.9,-5.000000000000011,5.676501038779993e-242,-5.999999999992083,0.0,-4.7657645482970755e-241,-1.6227019727921288e-11,0.0,-1.341396529748789e-239,-1.177902220206306e-09,0.0,70.0,255.0,255.0,255.0
199,9.950000000000001,-5.000000000000011,1.4877520982955305e-242,-5.999999999994437,0.0,-1.2133686920707396e-240,-5.735856234423409e-11,0.0,-1.3128913885966287e-239,-4.4586556668946287e-10,0.0,70.0,255.0,255.0,255.0
200,10.0,-5.000000000000011,-6.457185881927406e-242,-5.999999999997819,0.0,-1.7894678434263363e-240,-6.081357639686757e-11,0.0,-4.747569048426555e-240,1.6129320101754274e-10,0.0,70.0,255.0,255.0,255.0
201,10.05,-5.000000000000011,-1.6406926335967834e-241,-6.000000000000519,0.0,-1.6881255969133951e-240,-4.1229242242479813e-11,0.0,1.3116614484286747e-239,4.461320202153729e-10,0.0,70.0,255.0,255.0,255.0
202,10.100000000000001,-5.000000000000011,-2.333844185106136e-241,-6.000000000001942,0.0,-4.7780639499766155e-241,-1.6200374375330284e-11,0.0,3.466733140028917e-239,4.5581316499010427e-10,0.0,70.0,255.0,255.0,255.0
203,10.15,-5.000000000000011,-2.118499028594445e-241,-6.000000000002139,0.0,1.7786075431155222e-240,4.352074256530614e-12,0.0,5.0061600021190576e-239,3.1583624604536453e-10,0.0,70.0,255.0,255.0,255.0
204,10.200000000000001,-5.000000000000011,-5.552366419906138e-242,-6.000000000001506,0.0,4.5283536071213965e-240,1.538325022920617e-11,0.0,4.899777367062275e-239,1.1937117960769683e-10,0.0,70.0,255.0,255.0,255.0
205,10.25,-5.000000000000011,2.409854578526952e-241,-6.0000000000006,0.0,6.678384910177797e-240,1.6289192217300297e-11,0.0,1.7718168901169348e-239,-4.334310688136611e-11,0.0,70.0,255.0,255.0,255.0
206,10.3,-5.000000000000011,6.123148268187184e-241,-5.999999999999877,0.0,6.300170497238331e-240,1.1048939541069558e-11,0.0,-4.8951871678652e-239,-1.1945999744966684e-10,0.0,70.0,255.0,255.0,255.0
207,10.350000000000001,-5.000000000000011,8.710025075765283e-241,-5.9999999999994955,0.0,1.783197742312597e-240,4.343192472333612e-12,0.0,-1.2938024214870714e-238,-1.2221335055073723e-10,0.0,70.0,255.0,255.0,255.0
208,10.4,-5.000000000000011,7.906346010499781e-241,-5.999999999999443,0.0,-6.637853717632383e-240,-1.1723955140041653e-12,0.0,-1.8683243478727446e-238,-8.464340339742193e-11,0.0,70.0,255.0,255.0,255.0
209,10.450000000000001,-5.000000000000011,2.072171358132901e-241,-5.999999999999613,0.0,-1.6900045736414849e-239,-4.121147867408581e-12,0.0,-1.828621807965246e-238,-3.197442310920451e-11,0.0,70.0,255.0,255.0,255.0
210,10.5,-5.000000000000011,-8.993699725915069e-241,-5.999999999999855,0.0,-2.4924071797284844e-239,-4.369837824924616e-12,0.0,-6.612510655625072e-239,1.1546319456101628e-11,0.0,70.0,255.0,255.0,255.0
211,10.55,-5.000000000000011,-2.2851900439151947e-240,-6.00000000000005,0.0,-2.351255639203992e-239,-2.9665159217984183e-12,0.0,1.8269087223032115e-238,3.2152058793144533e-11,0.0,70.0,255.0,255.0,255.0
212,10.600000000000001,-5.000000000000011,-3.250625611795499e-240,-6.000000000000152,0.0,-6.654984574252728e-240,-1.1546319456101628e-12,0.0,4.828536371945392e-238,3.277378368693462e-11,0.0,70.0,255.0,255.0,255.0
213,10.65,-5.000000000000011,-2.9506885013404675e-240,-6.000000000000165,0.0,2.4772807327413995e-239,3.1086244689504383e-13,0.0,6.97268139127907e-238,2.255973186038318e-11,0.0,70.0,255.0,255.0,255.0
214,10.700000000000001,-5.000000000000011,-7.733448790540993e-241,-6.000000000000121,0.0,6.307182933853799e-239,1.1013412404281553e-12,0.0,6.82450949515476e-238,8.615330671091215e-12,0.0,70.0,255.0,255.0,255.0
215,10.75,-5.000000000000011,3.3564944325133317e-240,-6.000000000000055,0.0,9.30179022789616e-239,1.1723955140041653e-12,0.0,2.4678225732383355e-238,-3.0198066269804258e-12,0.0,70.0,255.0,255.0,255.0
216,10.8,-5.000000000000011,8.528445348842061e-240,-6.0000000000000036,0.0,8.775005507092134e-239,7.993605777301127e-13,0.0,-6.818116172426326e-238,-8.526512829121202e-12,0.0,70.0,255.0,255.0,255.0
217,10.850000000000001,-5.000000000000011,1.2131499939605467e-239,-5.999999999999975,0.0,2.4836740554698333e-239,3.197442310920451e-13,0.0,-1.8020343066294496e-237,-8.881784197001252e-12,0.0,70.0,255.0,255.0,255.0
218,10.9,-5.000000000000011,1.1012119404311894e-239,-5.999999999999972,0.0,-9.245337559202362e-239,-8.881784197001252e-14,0.0,-2.6022401217243545e-237,-6.217248937900877e-12,0.0,70.0,255.0,255.0,255.0
219,10.950000000000001,-5.000000000000011,2.886162380403105e-240,-5.999999999999984,0.0,-2.3538727161773713e-238,-3.019806626980426e-13,0.0,-2.5469416172653786e-237,-2.3092638912203256e-12,0.0,70.0,255.0,255.0,255.0
220,11.0,-5.000000000000011,-1.252660775746182e-239,-6.000000000000002,0.0,-3.471475373185615e-238,-3.197442310920451e-13,0.0,-9.21003922739084e-238,9.769962616701378e-13,0.0,70.0,255.0,255.0,255.0
221,11.05,-5.000000000000011,-3.182859135145305e-239,-6.000000000000016,0.0,-3.274876638916455e-238,-2.042810365310288e-13,0.0,2.54455559674021e-237,2.4868995751603507e-12,0.0,70.0,255.0,255.0,255.0
222,11.100000000000001,-5.000000000000011,-4.5275374146626375e-239,-6.000000000000022,0.0,-9.269197764454051e-239,-7.105427357601002e-14,0.0,6.72528358932326e-237,2.3092638912203256e-12,0.0,70.0,255.0,255.0,255.0
223,11.15,-5.000000000000011,-4.10977891159071e-239,-6.000000000000023,0.0,3.450406950406805e-238,2.6645352591003757e-14,0.0,9.711692347769511e-237,1.4210854715202004e-12,0.0,70.0,255.0,255.0,255.0
224,11.200000000000001,-5.000000000000011,-1.077130464255832e-239,-6.0000000000000195,0.0,8.784772571324105e-238,7.105427357601002e-14,0.0,9.505315519546037e-237,4.440892098500626e-13,0.0,70.0,255.0,255.0,255.0
225,11.25,-5.000000000000011,4.674993659733394e-239,-6.000000000000016,0.0,1.2955722469952842e-237,7.105427357601002e-14,0.0,3.4372334336325007e-237,-1.7763568394002505e-13,0.0,70.0,255.0,255.0,255.0
226,11.3,-5.000000000000011,1.1878592005697011e-238,-6.000000000000012,0.0,1.2222006004956606e-237,5.3290705182007514e-14,0.0,-9.496410769718203e-237,-5.329070518200751e-13,0.0,70.0,255.0,255.0,255.0
227,11.350000000000001,-5.000000000000011,1.689699966469e-238,-6.000000000000011,0.0,3.45931170023464e-238,1.7763568394002505e-14,0.0,-2.5099100050663583e-236,-5.329070518200751e-13,0.0,70.0,255.0,255.0,255.0
228,11.4,-5.000000000000011,1.5337903705931652e-238,-6.000000000000011,0.0,-1.287709404570698e-237,0.0,0.0,-3.6244529269353688e-236,-3.552713678800501e-13,0.0,70.0,255.0,255.0,255.0
229,11.450000000000001,-5.000000000000011,4.019905618983018e-239,-6.000000000000011,0.0,-3.278521756911905e-237,-1.7763568394002505e-14,0.0,-3.5474320460918772e-236,-1.7763568394002505e-13,0.0,70.0,255.0,255.0,255.0
230,11.5,-5.000000000000011,-1.74473138631874e-238,-6.000000000000012,0.0,-4.8351414506625755e-237,-1.7763568394002505e-14,0.0,-1.282792981179093e-236,0.0,0.0,70.0,255.0,255.0,255.0
231,11.55,-5.000000000000011,-4.4331508887642744e-238,-6.000000000000012,0.0,-4.561314738090998e-237,-1.7763568394002505e-14,0.0,3.544108748213261e-236,0.0,0.0,70.0,255.0,255.0,255.0
232,11.600000000000001,-5.000000000000011,-6.306046124409738e-238,-6.000000000000014,0.0,-1.291032702449314e-237,-1.7763568394002505e-14,0.0,9.367111661333111e-236,3.552713678800501e-13,0.0,70.0,255.0,255.0,255.0
233,11.65,-5.000000000000011,-5.7241835912135885e-238,-6.000000000000014,0.0,4.805796923242115e-237,1.7763568394002505e-14,0.0,1.3526642472964519e-235,3.552713678800501e-13,0.0,70.0,255.0,255.0,255.0
234,11.700000000000001,-5.000000000000011,-1.5002492011676227e-238,-6.000000000000012,0.0,1.2235609770515205e-236,1.7763568394002505e-14,0.0,1.3239196632412901e-235,-1.7763568394002505e-13,0.0,70.0,255.0,255.0,255.0
235,11.75,-5.000000000000011,6.511426179301618e-238,-6.000000000000012,0.0,1.8044993555655017e-236,0.0,0.0,4.78744858135312e-236,-1.7763568394002505e-13,0.0,70.0,255.0,255.0,255.0
236,11.8,-5.000000000000011,1.6544744354487395e-237,-6.000000000000012,0.0,1.7023058351868325e-236,0.0,0.0,-1.3226793915881218e-235,0.0,0.0,70.0,255.0,255.0,255.0
237,11.850000000000001,-5.000000000000011,2.3534484531169943e-237,-6.000000000000012,0.0,4.8181996397737963e-237,0.0,0.0,-3.495853664026607e-235,0.0,0.0,70.0,255.0,255.0,255.0
238,11.9,-5.000000000000011,2.136294399426119e-237,-6.000000000000012,0.0,-1.7935478288397749e-236,0.0,0.0,-5.048211696492272e-235,0.0,0.0,70.0,255.0,255.0,255.0
239,11.950000000000001,-5.000000000000011,5.599006242772194e-238,-6.000000000000012,0.0,-4.566391732514893e-236,0.0,0.0,-4.940935448355974e-235,0.0,0.0,70.0,255.0,255.0,255.0
240,12.0,-5.000000000000011,-2.4300973330887734e-237,-6.000000000000012,0.0,-6.734483277195749e-236,0.0,0.0,-1.786700134423337e-235,0.0,0.0,70.0,255.0,255.0,255.0
241,12.05,-5.000000000000011,-6.17458265291853e-237,-6.000000000000012,0.0,-6.35309186693823e-236,0.0,0.0,4.936306691531161e-235,0.0,0.0,70.0,255.0,255.0,255.0
242,12.100000000000001,-5.000000000000011,-8.783189200027004e-237,-6.000000000000012,0.0,-1.798176585664587e-236,0.0,0.0,1.3046703489973115e-234,0.0,0.0,70.0,255.0,255.0,255.0
243,12.15,-5.000000000000011,-7.972759238583117e-237,-6.000000000000012,0.0,6.693611623034887e-236,0.0,0.0,1.8840182538672635e-234,0.0,0.0,70.0,255.0,255.0,255.0
244,12.200000000000001,-5.000000000000011,-2.0895775769921159e-237,-6.000000000000012,0.0,1.7042005953008048e-235,0.0,0.0,1.8439822130182602e-234,0.0,0.0,70.0,255.0,255.0,255.0
245,12.25,-5.000000000000011,9.069246714424933e-237,-6.000000000000012,0.0,2.5133433753217493e-235,0.0,0.0,6.668055679558041e-235,0.0,0.0,70.0,255.0,255.0,255.0
246,12.3,-5.000000000000011,2.304385617622538e-236,-6.000000000000012,0.0,2.371006163256609e-235,0.0,0.0,-1.842254737453653e-234,0.0,0.0,70.0,255.0,255.0,255.0
247,12.350000000000001,-5.000000000000011,3.2779308346991024e-236,-6.000000000000012,0.0,6.710886378680964e-236,0.0,0.0,-4.8690960295865873e-234,0.0,0.0,70.0,255.0,255.0,255.0
248,12.4,-5.000000000000011,2.9754742554906345e-236,-6.000000000000012,0.0,-2.4980898663299784e-235,0.0,0.0,-7.031251845819825e-234,0.0,0.0,70.0,255.0,255.0,255.0
249,12.450000000000001,-5.000000000000011,7.79840968369124e-237,-6.000000000000012,0.0,-6.36016320795173e-235,0.0,0.0,-6.881835307237445e-234,0.0,0.0,70.0,255.0,255.0,255.0
250,12.5,-5.000000000000011,-3.3846889524610953e-236,-6.000000000000012,0.0,-9.379925173567423e-235,0.0,0.0,-2.4885522583808808e-234,0.0,0.0,70.0,255.0,255.0,255.0
251,12.55,-5.000000000000011,-8.6000842051983e-236,-6.000000000000012,0.0,-8.848715466332611e-235,0.0,0.0,6.875388280661494e-234,0.0,0.0,70.0,255.0,255.0,255.0
252,12.600000000000001,-5.000000000000011,-1.2233404418793707e-235,-6.000000000000012,0.0,-2.5045368929059285e-235,0.0,0.0,1.817171376934903e-233,0.0,0.0,70.0,255.0,255.0,255.0
253,12.65,-5.000000000000011,-1.1104621098104228e-235,-6.000000000000012,0.0,9.322998303016421e-235,0.0,0.0,2.624098912941204e-233,0.0,0.0,70.0,255.0,255.0,255.0
254,12.700000000000001,-5.000000000000011,-2.910406115777285e-236,-6.000000000000012,0.0,2.3736452236506112e-234,0.0,0.0,2.5683359015931514e-233,0.0,0.0,70.0,255.0,255.0,255.0
255,12.75,-5.000000000000011,1.2631831138401886e-235,-6.000000000000012,0.0,3.500635731894794e-234,0.0,0.0,9.287403465567725e-234,0.0,0.0,70.0,255.0,255.0,255.0
256,12.8,-5.000000000000011,3.2095951203170654e-235,-6.000000000000012,0.0,3.3023855702073836e-234,0.0,0.0,-2.565929838519233e-233,0.0,0.0,70.0,255.0,255.0,255.0
257,12.850000000000001,-5.000000000000011,4.5655686840475726e-235,-6.000000000000012,0.0,9.347058933755612e-235,0.0,0.0,-6.781775904780955e-233,0.0,0.0,70.0,255.0,255.0,255.0
258,12.9,-5.000000000000011,4.144301013692627e-235,-6.000000000000012,0.0,-3.479390334573572e-234,0.0,0.0,-9.793270467182832e-233,0.0,0.0,70.0,255.0,255.0,255.0
259,12.950000000000001,-5.000000000000011,1.0861783494740005e-235,-6.000000000000012,0.0,-8.85856457380727e-234,0.0,0.0,-9.585160075648858e-233,0.0,0.0,70.0,255.0,255.0,255.0
260,13.0,-5.000000000000011,-4.714263560114644e-235,-6.000000000000012,0.0,-1.306455041022243e-233,0.0,0.0,-3.4661061603889995e-233,0.0,0.0,70.0,255.0,255.0,255.0
261,13.05,-5.000000000000011,-1.1978372060748433e-234,-6.000000000000012,0.0,-1.232467073419627e-233,0.0,0.0,9.576180526010779e-233,0.0,0.0,70.0,255.0,255.0,255.0
262,13.100000000000001,-5.000000000000011,-1.7038934294310914e-234,-6.000000000000012,0.0,-3.488369884211652e-234,0.0,0.0,2.5309932242188907e-232,0.0,0.0,70.0,255.0,255.0,255.0
263,13.15,-5.000000000000011,-1.5466741944960084e-234,-6.000000000000012,0.0,1.2985261507992638e-233,0.0,0.0,3.654898295579013e-232,0.0,0.0,70.0,255.0,255.0,255.0
264,13.200000000000001,-5.000000000000011,-4.0536727863182736e-235,-6.000000000000012,0.0,3.306061307157848e-233,0.0,0.0,3.57723044010023e-232,0.0,0.0,70.0,255.0,255.0,255.0
265,13.25,-5.000000000000011,1.7593871126618395e-234,-6.000000000000012,0.0,4.875756590899494e-233,0.0,0.0,1.2935684294999236e-232,0.0,0.0,70.0,255.0,255.0,255.0
266,13.3,-5.000000000000011,4.470389312267667e-234,-6.000000000000012,0.0,4.599629736657772e-233,0.0,0.0,-3.5738792265523896e-232,0.0,0.0,70.0,255.0,255.0,255.0
267,13.350000000000001,-5.000000000000011,6.359016849319611e-234,-6.000000000000012,0.0,1.3018773643471044e-233,0.0,0.0,-9.445795306397472e-232,0.0,0.0,70.0,255.0,255.0,255.0
268,13.4,-5.000000000000011,5.772266676614771e-234,-6.000000000000012,0.0,-4.8461655697397e-233,0.0,0.0,-1.3640266135597767e-231,0.0,0.0,70.0,255.0,255.0,255.0
269,13.450000000000001,-5.000000000000011,1.51285127957991e-234,-6.000000000000012,0.0,-1.2338388771250662e-232,0.0,0.0,-1.335040575283603e-231,0.0,0.0,70.0,255.0,255.0,255.0
270,13.5,-5.000000000000011,-6.566122094635893e-234,-6.000000000000012,0.0,-1.8196571322575732e-232,0.0,0.0,-4.8276631019607925e-232,0.0,0.0,70.0,255.0,255.0,255.0
271,13.55,-5.000000000000011,-1.6683720042995824e-233,-6.000000000000012,0.0,-1.7166051873211455e-232,0.0,0.0,1.3337898853608474e-231,0.0,0.0,70.0,255.0,255.0,255.0
272,13.600000000000001,-5.000000000000011,-2.373217396784735e-233,-6.000000000000012,0.0,-4.858672468967255e-233,0.0,0.0,3.525218800137098e-231,0.0,0.0,70.0,255.0,255.0,255.0
273,13.65,-5.000000000000011,-2.154239251196308e-233,-6.000000000000012,0.0,1.808613612815953e-232,0.0,0.0,5.090616624681206e-231,0.0,0.0,70.0,255.0,255.0,255.0
274,13.700000000000001,-5.000000000000011,-5.646037839687816e-234,-6.000000000000012,0.0,4.6047493777844805e-232,0.0,0.0,4.9824392571243903e-231,0.0,0.0,70.0,255.0,255.0,255.0
275,13.75,-5.000000000000011,2.4505101265881726e-233,-6.000000000000012,0.0,6.791052869940344e-232,0.0,0.0,1.8017083978343237e-231,0.0,0.0,70.0,255.0,255.0,255.0
276,13.8,-5.000000000000011,6.2264490859715625e-233,-6.000000000000012,0.0,6.406457775618804e-232,0.0,0.0,-4.9777716187881545e-231,0.0,0.0,70.0,255.0,255.0,255.0
277,13.850000000000001,-5.000000000000011,8.856967902206977e-233,-6.000000000000012,0.0,1.8132812511521896e-232,0.0,0.0,-1.3156295669908645e-230,0.0,0.0,70.0,255.0,255.0,255.0
278,13.9,-5.000000000000011,8.039730337123752e-233,-6.000000000000012,0.0,-6.749837894289842e-232,0.0,0.0,-1.8998439885165039e-230,0.0,0.0,70.0,255.0,255.0,255.0
279,13.950000000000001,-5.000000000000011,2.107130007917135e-233,-6.000000000000012,0.0,-1.718515863401285e-231,0.0,0.0,-1.8594716453213957e-230,0.0,0.0,70.0,255.0,255.0,255.0
280,14.0,-5.000000000000011,-9.145428296889101e-233,-6.000000000000012,0.0,-2.53445543475038e-231,0.0,0.0,-6.724067281141221e-231,0.0,0.0,70.0,255.0,255.0,255.0
281,14.05,-5.000000000000011,-2.3237424339586665e-232,-6.000000000000012,0.0,-2.3909225915154072e-231,0.0,0.0,1.8577296589791763e-230,0.0,0.0,70.0,255.0,255.0,255.0
282,14.100000000000001,-5.000000000000011,-3.3054654212043175e-232,-6.000000000000012,0.0,-6.767257757712034e-232,0.0,0.0,4.909996387949749e-230,0.0,0.0,70.0,255.0,255.0,255.0
283,14.15,-5.000000000000011,-3.00046820972987e-232,-6.000000000000012,0.0,2.5190737964343416e-231,0.0,0.0,7.090314291597894e-230,0.0,0.0,70.0,255.0,255.0,255.0
284,14.200000000000001,-5.000000000000011,-7.86391624769976e-233,-6.000000000000012,0.0,6.413588515826691e-231,0.0,0.0,6.939642655573142e-230,0.0,0.0,70.0,255.0,255.0,255.0
285,14.25,-5.000000000000011,3.413120306096823e-232,-6.000000000000012,0.0,9.458716452007485e-231,0.0,0.0,2.5094560726730567e-230,0.0,0.0,70.0,255.0,255.0,255.0
286,14.3,-5.000000000000011,8.672324827237509e-232,-6.000000000000012,0.0,8.923044588499748e-231,0.0,0.0,-6.933141474037891e-230,0.0,0.0,70.0,255.0,255.0,255.0
287,14.350000000000001,-5.000000000000011,1.2336164894596572e-231,-6.000000000000012,0.0,2.525574977969594e-231,0.0,0.0,-1.8324355984808124e-229,0.0,0.0,70.0,255.0,255.0,255.0
288,14.4,-5.000000000000011,1.1197899805207103e-231,-6.000000000000012,0.0,-9.40131139630838e-231,0.0,0.0,-2.6461413177875078e-229,0.0,0.0,70.0,255.0,255.0,255.0
289,14.450000000000001,-5.000000000000011,2.9348534982881913e-232,-6.000000000000012,0.0,-2.3935838199905485e-230,0.0,0.0,-2.589909897697119e-229,0.0,0.0,70.0,255.0,255.0,255.0
290,14.5,-5.000000000000011,-1.2737938394698384e-231,-6.000000000000012,0.0,-3.530041037327957e-230,0.0,0.0,-9.365417562578098e-230,0.0,0.0,70.0,255.0,255.0,255.0
291,14.55,-5.000000000000011,-3.2365556874991376e-231,-6.000000000000012,0.0,-3.3301255762483583e-230,0.0,0.0,2.587483623717239e-229,0.0,0.0,70.0,255.0,255.0,255.0
292,14.600000000000001,-5.000000000000011,-4.603919415718197e-231,-6.000000000000012,0.0,-9.42557413610718e-231,0.0,0.0,6.838742755128276e-229,0.0,0.0,70.0,255.0,255.0,255.0
293,14.65,-5.000000000000011,-4.1791131011098556e-231,-6.000000000000012,0.0,3.508617178879919e-230,0.0,0.0,9.875533841990242e-229,0.0,0.0,70.0,255.0,255.0,255.0
294,14.700000000000001,-5.000000000000011,-1.0953022368382781e-231,-6.000000000000012,0.0,8.932976428379525e-230,0.0,0.0,9.665675325231152e-229,0.0,0.0,70.0,255.0,255.0,255.0
295,14.75,-5.000000000000011,4.75386332726967e-231,-6.000000000000012,0.0,1.3174292504111072e-229,0.0,0.0,3.495221417763926e-229,0.0,0.0,70.0,255.0,255.0,255.0
296,14.8,-5.000000000000011,1.2078990267272795e-230,-6.000000000000012,0.0,1.2428197846143451e-229,0.0,0.0,-9.656620347465158e-229,0.0,0.0,70.0,255.0,255.0,255.0
297,14.850000000000001,-5.000000000000011,1.7182061173413123e-230,-6.000000000000012,0.0,3.5176721566459137e-230,0.0,0.0,-2.5522535422032278e-228,0.0,0.0,70.0,255.0,255.0,255.0
298,14.9,-5.000000000000011,1.5596662423918708e-230,-6.000000000000012,0.0,-1.3094337575888828e-229,0.0,0.0,-3.685599405017346e-228,0.0,0.0,70.0,255.0,255.0,255.0
299,14.950000000000001,-5.000000000000011,4.0877235975242936e-231,-6.000000000000012,0.0,-3.333832189352755e-229,0.0,0.0,-3.607279140322751e-228,0.0,0.0,70.0,255.0,255.0,255.0
300,15.0,-5.000000000000011,-1.774165946960884e-230,-6.000000000000012,0.0,-4.916712897911633e-229,0.0,0.0,-1.3044343914797937e-228,0.0,0.0,70.0,255.0,255.0,255.0
301,15.05,-5.000000000000011,-4.507940538159205e-230,-6.000000000000012,0.0,-4.6382665808325486e-229,0.0,0.0,3.60389977661434e-228,0.0,0.0,70.0,255.0,255.0,255.0
302,15.100000000000001,-5.000000000000011,-6.412432527793432e-230,-6.000000000000012,0.0,-1.3128131212972928e-229,0.0,0.0,9.525139893300092e-228,0.0,0.0,70.0,255.0,255.0,255.0
303,15.15,-5.000000000000011,-5.820753659456497e-230,-6.000000000000012,0.0,4.8868733124675425e-229,0.0,0.0,1.375484423587036e-227,0.0,0.0,70.0,255.0,255.0,255.0
304,15.200000000000001,-5.000000000000011,-1.5255592153258894e-230,-6.000000000000012,0.0,1.2442031114573067e-228,0.0,0.0,1.3462549028767883e-227,0.0,0.0,70.0,255.0,255.0,255.0
305,15.25,-5.000000000000011,6.621277455116569e-230,-6.000000000000012,0.0,1.8349422341235425e-228,0.0,0.0,4.868215424142773e-228,0.0,0.0,70.0,255.0,255.0,255.0
306,15.3,-5.000000000000011,1.682386312590954e-229,-6.000000000000012,0.0,1.731024653871584e-228,0.0,0.0,-1.3449937071710843e-227,0.0,0.0,70.0,255.0,255.0,255.0
307,15.350000000000001,-5.000000000000011,2.3931523993832412e-229,-6.000000000000012,0.0,4.89948526952458e-229,0.0,0.0,-3.5548306030997123e-227,0.0,0.0,70.0,255.0,255.0,255.0
308,15.4,-5.000000000000011,2.172334839543412e-229,-6.000000000000012,0.0,-1.8238059492281284e-228,0.0,0.0,-5.133377753846408e-227,0.0,0.0,70.0,255.0,255.0,255.0
309,15.450000000000001,-5.000000000000011,5.69346450155113e-230,-6.000000000000012,0.0,-4.643429226893951e-228,0.0,0.0,-5.024291697474878e-227,0.0,0.0,70.0,255.0,255.0,255.0
310,15.5,-5.000000000000011,-2.4710943873505392e-229,-6.000000000000012,0.0,-6.848097646703006e-228,0.0,0.0,-1.8168427305091306e-227,0.0,0.0,70.0,255.0,255.0,255.0
311,15.55,-5.000000000000011,-6.2787511965478934e-229,-6.000000000000012,0.0,-6.460271957403081e-228,0.0,0.0,5.019584851022903e-227,0.0,0.0,70.0,255.0,255.0,255.0
312,15.600000000000001,-5.000000000000011,-8.93136634475362e-229,-6.000000000000012,0.0,-1.8285127956801032e-228,0.0,0.0,1.3266808423068837e-226,0.0,0.0,70.0,255.0,255.0,255.0
313,15.65,-5.000000000000011,-8.107263992227997e-229,-6.000000000000012,0.0,6.806536465665758e-228,0.0,0.0,1.9158026591798602e-226,0.0,0.0,70.0,255.0,255.0,255.0
314,15.700000000000001,-5.000000000000011,-2.124829879087863e-229,-6.000000000000012,0.0,1.73295137961185e-227,0.0,0.0,1.8750911887022724e-226,0.0,0.0,70.0,255.0,255.0,255.0
315,15.75,-5.000000000000011,9.222249803890502e-229,-6.000000000000012,0.0,2.5557448352688486e-227,0.0,0.0,6.780549379622249e-227,0.0,0.0,70.0,255.0,255.0,255.0
316,15.8,-5.000000000000011,2.3432618473600626e-228,-6.000000000000012,0.0,2.411006317574075e-227,0.0,0.0,-1.873334569692051e-226,0.0,0.0,70.0,255.0,255.0,255.0
317,15.850000000000001,-5.000000000000011,3.333231297963125e-228,-6.000000000000012,0.0,6.824102655767973e-228,0.0,0.0,-4.951240308917543e-226,0.0,0.0,70.0,255.0,255.0,255.0
318,15.9,-5.000000000000011,3.02567211293686e-228,-6.000000000000012,0.0,-2.540233991343469e-227,0.0,0.0,-7.149872861334811e-226,0.0,0.0,70.0,255.0,255.0,255.0
319,15.950000000000001,-5.000000000000011,7.929973066196559e-229,-6.000000000000012,0.0,-6.467462595758014e-227,0.0,0.0,-6.997935585061676e-226,0.0,0.0,70.0,255.0,255.0,255.0
320,16.0,-5.000000000000011,-3.441790482821154e-228,-6.000000000000012,0.0,-9.538169576405146e-227,0.0,0.0,-2.5305354787980144e-226,0.0,0.0,70.0,255.0,255.0,255.0
321,16.05,-5.000000000000011,-8.745172269785491e-228,-6.000000000000012,0.0,-8.997998074556029e-227,0.0,0.0,6.99137979366594e-226,0.0,0.0,70.0,255.0,255.0,255.0
322,16.1,-5.000000000000011,-1.2439788557377183e-227,-6.000000000000012,0.0,-2.546789782739205e-227,0.0,0.0,1.847828039336332e-225,0.0,0.0,70.0,255.0,255.0,255.0
323,16.150000000000002,-5.000000000000011,-1.1291962052524696e-227,-6.000000000000012,0.0,9.480282318807292e-227,0.0,0.0,2.668368878615941e-225,0.0,0.0,70.0,255.0,255.0,255.0
324,16.2,-5.000000000000011,-2.959506238569891e-228,-6.000000000000012,0.0,2.4136899003420205e-226,0.0,0.0,2.6116651151544447e-225,0.0,0.0,70.0,255.0,255.0,255.0
325,16.25,-5.000000000000011,1.2844936950895509e-227,-6.000000000000012,0.0,3.559693347035174e-226,0.0,0.0,9.44408697722985e-226,0.0,0.0,70.0,255.0,255.0,255.0
326,16.3,-5.000000000000011,3.263742723178185e-227,-6.000000000000012,0.0,3.3580985980650057e-226,0.0,0.0,-2.6092184604971695e-225,0.0,0.0,70.0,255.0,255.0,255.0
327,16.35,-5.000000000000011,4.642592293154557e-227,-6.000000000000012,0.0,9.504748865380046e-227,0.0,0.0,-6.896188126453571e-225,0.0,0.0,70.0,255.0,255.0,255.0
328,16.400000000000002,-5.000000000000011,4.2142176097161897e-227,-6.000000000000012,0.0,-3.538089528388566e-226,0.0,0.0,-9.958488228330283e-225,0.0,0.0,70.0,255.0,255.0,255.0
329,16.45,-5.000000000000011,1.1045027647659906e-227,-6.000000000000012,0.0,-9.008013341792278e-226,0.0,0.0,-9.746866902111611e-225,0.0,0.0,70.0,255.0,255.0,255.0
330,16.5,-5.000000000000011,-4.793795732076088e-227,-6.000000000000012,0.0,-1.3284956430500177e-225,0.0,0.0,-3.524581243012137e-225,0.0,0.0,70.0,255.0,255.0,255.0
331,16.55,-5.000000000000011,-1.2180453665734187e-226,-6.000000000000012,0.0,-1.2532594584804416e-225,0.0,0.0,9.737735862622078e-225,0.0,0.0,70.0,255.0,255.0,255.0
332,16.6,-5.000000000000011,-1.7326390316880504e-226,-6.000000000000012,0.0,-3.547220567878099e-226,0.0,0.0,2.573692446647795e-224,0.0,0.0,70.0,255.0,255.0,255.0
333,16.650000000000002,-5.000000000000011,-1.5727674233612286e-226,-6.000000000000012,0.0,1.3204329881673535e-225,0.0,0.0,3.7165584034705186e-224,0.0,0.0,70.0,255.0,255.0,255.0
334,16.7,-5.000000000000011,-4.1220604352069683e-227,-6.000000000000012,0.0,3.361836346682709e-225,0.0,0.0,3.6375802493291996e-224,0.0,0.0,70.0,255.0,255.0,255.0
335,16.75,-5.000000000000011,1.7890689233214804e-226,-6.000000000000012,0.0,4.9580132374965536e-225,0.0,0.0,1.315391627432556e-224,0.0,0.0,70.0,255.0,255.0,255.0
336,16.8,-5.000000000000011,4.545807193975857e-226,-6.000000000000012,0.0,4.677227974115265e-225,0.0,0.0,-3.634172498999115e-224,0.0,0.0,70.0,255.0,255.0,255.0
337,16.85,-5.000000000000011,6.466296897436746e-226,-6.000000000000012,0.0,1.3238407384974385e-225,0.0,0.0,-9.605150973945823e-224,0.0,0.0,70.0,255.0,255.0,255.0
338,16.900000000000002,-5.000000000000011,5.8696479324732954e-226,-6.000000000000012,0.0,-4.927922999830558e-225,0.0,0.0,-1.3870384791049047e-223,0.0,0.0,70.0,255.0,255.0,255.0
339,16.95,-5.000000000000011,1.5383738976061881e-226,-6.000000000000012,0.0,-1.2546544052551609e-224,0.0,0.0,-1.3575634307105638e-223,0.0,0.0,70.0,255.0,255.0,255.0
340,17.0,-5.000000000000011,-6.676896120078314e-226,-6.000000000000012,0.0,-1.8503557306936197e-224,0.0,0.0,-4.909108385429008e-224,0.0,0.0,70.0,255.0,255.0,255.0
341,17.05,-5.000000000000011,-1.696518340933001e-225,-6.000000000000012,0.0,-1.7455652437980617e-224,0.0,0.0,1.3562916409734248e-223,0.0,0.0,70.0,255.0,255.0,255.0
342,17.1,-5.000000000000011,-2.4132548558058933e-225,-6.000000000000012,0.0,-4.940640897201948e-225,0.0,0.0,3.584691144913548e-223,0.0,0.0,70.0,255.0,255.0,255.0
343,17.150000000000002,-5.000000000000011,-2.1905824306531958e-225,-6.000000000000012,0.0,1.8391259011154868e-224,0.0,0.0,5.176498076072567e-223,0.0,0.0,70.0,255.0,255.0,255.0
344,17.2,-5.000000000000011,-5.741289546904064e-226,-6.000000000000012,0.0,4.682433986352372e-224,0.0,0.0,5.0664956979093344e-223,0.0,0.0,70.0,255.0,255.0,255.0
345,17.25,-5.000000000000011,2.4918515556991764e-225,-6.000000000000012,0.0,6.905621599024822e-224,0.0,0.0,1.8321041914283496e-223,0.0,0.0,70.0,255.0,255.0,255.0
346,17.3,-5.000000000000011,6.331492644334416e-225,-6.000000000000012,0.0,6.514538177780722e-224,0.0,0.0,-5.0617493139937855e-223,0.0,0.0,70.0,255.0,255.0,255.0
347,17.35,-5.000000000000011,9.006389733479898e-225,-6.000000000000012,0.0,1.843872285031036e-224,0.0,0.0,-1.3378249482259615e-222,0.0,0.0,70.0,255.0,255.0,255.0
348,17.400000000000002,-5.000000000000011,8.175364929365452e-225,-6.000000000000012,0.0,-6.863711304478893e-224,0.0,0.0,-1.9318953825185363e-222,0.0,0.0,70.0,255.0,255.0,255.0
349,17.45,-5.000000000000011,2.142678429001005e-225,-6.000000000000012,0.0,-1.7475081540154327e-223,0.0,0.0,-1.8908419360926775e-222,0.0,0.0,70.0,255.0,255.0,255.0
350,17.5,-5.000000000000011,-9.299716610788874e-225,-6.000000000000012,0.0,-2.577213066540567e-223,0.0,0.0,-6.8375059271704925e-223,0.0,0.0,70.0,255.0,255.0,255.0
351,17.55,-5.000000000000011,-2.3629452236404665e-224,-6.000000000000012,0.0,-2.431258746732482e-223,0.0,0.0,1.8890705615001727e-222,0.0,0.0,70.0,255.0,255.0,255.0
352,17.6,-5.000000000000011,-3.3612304078113696e-224,-6.000000000000012,0.0,-6.881425050403942e-224,0.0,0.0,4.99283067841249e-222,0.0,0.0,70.0,255.0,255.0,255.0
353,17.650000000000002,-5.000000000000011,-3.0510877286808607e-224,-6.000000000000012,0.0,2.5615719316800083e-223,0.0,0.0,7.209931722466886e-222,0.0,0.0,70.0,255.0,255.0,255.0
354,17.7,-5.000000000000011,-7.996584761313611e-225,-6.000000000000012,0.0,6.5217892174264924e-223,0.0,0.0,7.056718174579777e-222,0.0,0.0,70.0,255.0,255.0,255.0
355,17.75,-5.000000000000011,3.470701488745632e-224,-6.000000000000012,0.0,9.618290106259785e-223,0.0,0.0,2.5517919517253615e-222,0.0,0.0,70.0,255.0,255.0,255.0
356,17.8,-5.000000000000011,8.818631630128425e-224,-6.000000000000012,0.0,9.073581169151854e-223,0.0,0.0,-7.050107314601313e-222,0.0,0.0,70.0,255.0,255.0,255.0
357,17.85,-5.000000000000011,1.2544282657897488e-223,-6.000000000000012,0.0,2.5681827916584717e-223,0.0,0.0,-1.8633497765423996e-221,0.0,0.0,70.0,255.0,255.0,255.0
358,17.900000000000002,-5.000000000000011,1.1386814421786897e-223,-6.000000000000012,0.0,-9.559916596272142e-223,0.0,0.0,-2.6907831507349006e-221,0.0,0.0,70.0,255.0,255.0,255.0
359,17.95,-5.000000000000011,2.9843660616253453e-224,-6.000000000000012,0.0,-2.4339648715690537e-222,0.0,0.0,-2.6336030762226433e-221,0.0,0.0,70.0,255.0,255.0,255.0
360,18.0,-5.000000000000011,-1.2952834293903639e-223,-6.000000000000012,0.0,-3.5895947358498575e-222,0.0,0.0,-9.5234172141844e-222,0.0,0.0,70.0,255.0,255.0,255.0
361,18.05,-5.000000000000011,-3.291158129687323e-223,-6.000000000000012,0.0,-3.386306592987494e-222,0.0,0.0,2.6311358696905084e-221,0.0,0.0,70.0,255.0,255.0,255.0
362,18.1,-5.000000000000011,-4.681590022377858e-223,-6.000000000000012,0.0,-9.58458866159349e-223,0.0,0.0,6.954116038328351e-221,0.0,0.0,70.0,255.0,255.0,255.0
363,18.150000000000002,-5.000000000000011,-4.249616995846672e-223,-6.000000000000012,0.0,3.567809445340857e-222,0.0,0.0,1.0042139430692915e-220,0.0,0.0,70.0,255.0,255.0,255.0
364,18.2,-5.000000000000011,-1.1137805770370009e-223,-6.000000000000012,0.0,9.083680564533566e-222,0.0,0.0,9.828740487432592e-221,0.0,0.0,70.0,255.0,255.0,255.0
365,18.25,-5.000000000000011,4.834063568686894e-223,-6.000000000000012,0.0,1.339654993277345e-221,0.0,0.0,3.554187690501222e-221,0.0,0.0,70.0,255.0,255.0,255.0
366,18.3,-5.000000000000011,1.2282769355736449e-222,-6.000000000000012,0.0,1.2637868255034788e-221,0.0,0.0,-9.8195327473019e-221,0.0,0.0,70.0,255.0,255.0,255.0
367,18.35,-5.000000000000011,1.747193182372168e-222,-6.000000000000012,0.0,3.577017185471549e-222,0.0,0.0,-2.5953114376771e-220,0.0,0.0,70.0,255.0,255.0,255.0
368,18.400000000000002,-5.000000000000011,1.5859786541207998e-222,-6.000000000000012,0.0,-1.331524612173621e-221,0.0,0.0,-3.7477774572036744e-220,0.0,0.0,70.0,255.0,255.0,255.0
369,18.45,-5.000000000000011,4.15668570198547e-223,-6.000000000000012,0.0,-3.39007573865652e-221,0.0,0.0,-3.668135887350773e-220,0.0,0.0,70.0,255.0,255.0,255.0
370,18.5,-5.000000000000011,-1.8040970845357207e-222,-6.000000000000012,0.0,-4.999660499524394e-221,0.0,0.0,-1.3264409040586475e-220,0.0,0.0,70.0,255.0,255.0,255.0
371,18.55,-5.000000000000011,-4.583991929325847e-222,-6.000000000000012,0.0,-4.716516642715167e-221,0.0,0.0,3.664699511951708e-220,0.0,0.0,70.0,255.0,255.0,255.0
372,18.6,-5.000000000000011,-6.520613727250889e-222,-6.000000000000012,0.0,-1.3349609875726857e-221,0.0,0.0,9.685834146875567e-220,0.0,0.0,70.0,255.0,255.0,255.0
373,18.650000000000002,-5.000000000000011,-5.918952916898533e-222,-6.000000000000012,0.0,4.969317504160402e-221,0.0,0.0,1.3986895885745412e-219,0.0,0.0,70.0,255.0,255.0,255.0
374,18.7,-5.000000000000011,-1.5512962230904867e-222,-6.000000000000012,0.0,1.2651934898172727e-220,0.0,0.0,1.3689669500659829e-219,0.0,0.0,70.0,255.0,255.0,255.0
375,18.75,-5.000000000000011,6.732981981274194e-222,-6.000000000000012,0.0,1.865898700482023e-220,0.0,0.0,4.9503448471844545e-220,0.0,0.0,70.0,255.0,255.0,255.0
376,18.8,-5.000000000000011,1.7107690781729744e-221,-6.000000000000012,0.0,1.7602279745357182e-220,0.0,0.0,-1.3676844773076648e-219,0.0,0.0,70.0,255.0,255.0,255.0
377,18.85,-5.000000000000011,2.4335261726631376e-221,-6.000000000000012,0.0,4.982142231743584e-221,0.0,0.0,-3.614802514982547e-219,0.0,0.0,70.0,255.0,255.0,255.0
378,18.900000000000002,-5.000000000000011,2.2089833013473328e-221,-6.000000000000012,0.0,-1.8545745404468296e-220,0.0,0.0,-5.219980608577788e-219,0.0,0.0,70.0,255.0,255.0,255.0
379,18.95,-5.000000000000011,5.78951632216308e-222,-6.000000000000012,0.0,-4.72176638540343e-220,0.0,0.0,-5.109054211528752e-219,0.0,0.0,70.0,255.0,255.0,255.0
380,19.0,-5.000000000000011,-2.5127830840560976e-221,-6.000000000000012,0.0,-6.9636287519755815e-220,0.0,0.0,-1.8474938484678746e-219,0.0,0.0,70.0,255.0,255.0,255.0
381,19.05,-5.000000000000011,-6.384677119759273e-221,-6.000000000000012,0.0,-6.569260233871305e-220,0.0,0.0,5.104267958035452e-219,0.0,0.0,70.0,255.0,255.0,255.0
382,19.1,-5.000000000000011,-9.082043317927403e-221,-6.000000000000012,0.0,-1.85936079394013e-220,0.0,0.0,1.3490626645242594e-218,0.0,0.0,70.0,255.0,255.0,255.0
383,19.150000000000002,-5.000000000000011,-8.244037913699403e-221,-6.000000000000012,0.0,6.9213664113712906e-220,0.0,0.0,1.948123284573658e-218,0.0,0.0,70.0,255.0,255.0,255.0
384,19.200000000000003,-5.000000000000011,-2.1606769065561118e-221,-6.000000000000012,0.0,1.7621872051796452e-219,0.0,0.0,1.9067249896049012e-218,0.0,0.0,70.0,255.0,255.0,255.0
385,19.25,-5.000000000000011,9.377834138097049e-221,-6.000000000000012,0.0,2.59886163074203e-219,0.0,0.0,6.894940909153022e-219,0.0,0.0,70.0,255.0,255.0,255.0
386,19.3,-5.000000000000011,2.382793940086419e-220,-6.000000000000012,0.0,2.4516812960949474e-219,0.0,0.0,-1.9049387354834188e-218,0.0,0.0,70.0,255.0,255.0,255.0
387,19.35,-5.000000000000011,3.3894647099046524e-220,-6.000000000000012,0.0,6.939228952586111e-220,0.0,0.0,-5.034770406598786e-218,0.0,0.0,70.0,255.0,255.0,255.0
388,19.400000000000002,-5.000000000000011,3.0767168353450303e-220,-6.000000000000012,0.0,-2.5830891105038387e-219,0.0,0.0,-7.270495077436847e-218,0.0,0.0,70.0,255.0,255.0,255.0
389,19.450000000000003,-5.000000000000011,8.063755994008136e-221,-6.000000000000012,0.0,-6.576572182178236e-219,0.0,0.0,-7.115994537266722e-218,0.0,0.0,70.0,255.0,255.0,255.0
390,19.5,-5.000000000000011,-3.4998553468332065e-220,-6.000000000000012,0.0,-9.69908364777056e-219,0.0,0.0,-2.573226978814426e-218,0.0,0.0,70.0,255.0,255.0,255.0
391,19.55,-5.000000000000011,-8.892708048369747e-220,-6.000000000000012,0.0,-9.149799160992662e-219,0.0,0.0,7.109328146130123e-218,0.0,0.0,70.0,255.0,255.0,255.0
392,19.6,-5.000000000000011,-1.2649654507825869e-219,-6.000000000000012,0.0,-2.589755501640436e-219,0.0,0.0,1.8790018961870887e-217,0.0,0.0,70.0,255.0,255.0,255.0
393,19.650000000000002,-5.000000000000011,-1.1482463550010183e-219,-6.000000000000012,0.0,9.640219800878228e-219,0.0,0.0,2.7133857025173737e-217,0.0,0.0,70.0,255.0,255.0,255.0
394,19.700000000000003,-5.000000000000011,-3.009434706947641e-220,-6.000000000000012,0.0,2.45441015235333e-218,0.0,0.0,2.6557253159461975e-217,0.0,0.0,70.0,255.0,255.0,255.0
395,19.75,-5.000000000000011,1.3061637973523123e-219,-6.000000000000012,0.0,3.6197472960340203e-218,0.0,0.0,9.603413824342386e-218,0.0,0.0,70.0,255.0,255.0,255.0
396,19.8,-5.000000000000011,3.318803825339256e-219,-6.000000000000012,0.0,3.4147515347875687e-218,0.0,0.0,-2.653237384903707e-217,0.0,0.0,70.0,255.0,255.0,255.0
397,19.85,-5.000000000000011,4.7209153321398815e-219,-6.000000000000012,0.0,9.665099111303133e-219,0.0,0.0,-7.012530544088476e-217,0.0,0.0,70.0,255.0,255.0,255.0
398,19.900000000000002,-5.000000000000011,4.2853137364695694e-219,-6.000000000000012,0.0,-3.597779009300907e-218,0.0,0.0,-1.0126493302325811e-216,0.0,0.0,70.0,255.0,255.0,255.0
399,19.950000000000003,-5.000000000000011,1.1231363228389742e-219,-6.000000000000012,0.0,-9.159983391195498e-218,0.0,0.0,-9.91130181005812e-217,0.0,0.0,70.0,255.0,255.0,255.0
400,20.0,-5.000000000000011,-4.874669654725929e-219,-6.000000000000012,0.0,-1.3509080819359027e-217,0.0,0.0,-3.584042831855512e-217,0.0,0.0,70.0,255.0,255.0,255.0
401,20.05,-5.000000000000011,-1.2385944496520053e-218,-6.000000000000012,0.0,-1.274402622305101e-217,0.0,0.0,9.902016725001822e-217,0.0,0.0,70.0,255.0,255.0,255.0
402,20.1,-5.000000000000011,-1.7618695877776939e-218,-6.000000000000012,0.0,-3.607064094357205e-218,0.0,0.0,2.6171120280166813e-216,0.0,0.0,70.0,255.0,255.0,255.0
403,20.150000000000002,-5.000000000000011,-1.5993008590877258e-218,-6.000000000000012,0.0,1.3427094057115803e-217,0.0,0.0,3.7792587506785854e-216,0.0,0.0,70.0,255.0,255.0,255.0
404,20.200000000000003,-5.000000000000011,-4.191601820661135e-219,-6.000000000000012,0.0,3.4185523412428655e-217,0.0,0.0,3.6989481924286266e-216,0.0,0.0,70.0,255.0,255.0,255.0
405,20.25,-5.000000000000011,1.81925148215514e-218,-6.000000000000012,0.0,5.041657598140207e-217,0.0,0.0,1.3375829944987808e-216,0.0,0.0,70.0,255.0,255.0,255.0
406,20.3,-5.000000000000011,4.622497416074094e-218,-6.000000000000012,0.0,4.756135335741646e-217,0.0,0.0,-3.695482951510355e-216,0.0,0.0,70.0,255.0,255.0,255.0
407,20.35,-5.000000000000011,6.575386817896786e-218,-6.000000000000012,0.0,1.3461746466298524e-217,0.0,0.0,-9.767195057657877e-216,0.0,0.0,70.0,255.0,255.0,255.0
408,20.400000000000002,-5.000000000000011,5.968672062703947e-218,-6.000000000000012,0.0,-5.01105972191623e-217,0.0,0.0,-1.410438567248177e-215,0.0,0.0,70.0,255.0,255.0,255.0
409,20.450000000000003,-5.000000000000011,1.564327095980556e-218,-6.000000000000012,0.0,-1.2758211025851916e-216,0.0,0.0,-1.3804662588708702e-215,0.0,0.0,70.0,255.0,255.0,255.0
410,20.5,-5.000000000000011,-6.789538963147968e-218,-6.000000000000012,0.0,-1.881572231062493e-216,0.0,0.0,-4.9919276948095686e-216,0.0,0.0,70.0,255.0,255.0,255.0
411,20.55,-5.000000000000011,-1.7251395214644376e-217,-6.000000000000012,0.0,-1.7750138720661485e-216,0.0,0.0,1.3791730133541248e-215,0.0,0.0,70.0,255.0,255.0,255.0
412,20.6,-5.000000000000011,-2.4539677683809457e-217,-6.000000000000012,0.0,-5.023992177083684e-217,0.0,0.0,3.645166820261482e-215,0.0,0.0,70.0,255.0,255.0,255.0
413,20.650000000000002,-5.000000000000011,-2.227538739172806e-217,-6.000000000000012,0.0,1.8701529481953337e-216,0.0,0.0,5.263828393924847e-215,0.0,0.0,70.0,255.0,255.0,255.0
414,20.700000000000003,-5.000000000000011,-5.838148201856116e-218,-6.000000000000012,0.0,4.7614291762164796e-216,0.0,0.0,5.151970216240618e-215,0.0,0.0,70.0,255.0,255.0,255.0
415,20.75,-5.000000000000011,2.5338904370436736e-217,-6.000000000000012,0.0,7.022123164435952e-216,0.0,0.0,1.8630127784739504e-215,0.0,0.0,70.0,255.0,255.0,255.0
416,20.8,-5.000000000000011,6.438308344250341e-217,-6.000000000000012,0.0,6.62444195469043e-216,0.0,0.0,-5.147143758265464e-215,0.0,0.0,70.0,255.0,255.0,255.0
417,20.85,-5.000000000000011,9.158332391734104e-217,-6.000000000000012,0.0,1.8749794061704882e-216,0.0,0.0,-1.3603947775280142e-214,0.0,0.0,70.0,255.0,255.0,255.0
418,20.900000000000002,-5.000000000000011,8.313287750420829e-217,-6.000000000000012,0.0,-6.979505820589713e-216,0.0,0.0,-1.964487500845121e-214,0.0,0.0,70.0,255.0,255.0,255.0
419,20.950000000000003,-5.000000000000011,2.1788265711443903e-217,-6.000000000000012,0.0,-1.7769895602280725e-215,0.0,0.0,-1.9227414606091602e-214,0.0,0.0,70.0,255.0,255.0,255.0
420,21.0,-5.000000000000011,-9.456607851859895e-217,-6.000000000000012,0.0,-2.620692042668132e-215,0.0,0.0,-6.952858344414857e-215,0.0,0.0,70.0,255.0,255.0,255.0
421,21.05,-5.000000000000011,-2.4028093855536926e-216,-6.000000000000012,0.0,-2.472275394669558e-215,0.0,0.0,1.9209402019707733e-214,0.0,0.0,70.0,255.0,255.0,255.0
422,21.1,-5.000000000000011,-3.417936179855548e-216,-6.000000000000012,0.0,-6.997518406973584e-216,0.0,0.0,5.07706242808591e-214,0.0,0.0,70.0,255.0,255.0,255.0
423,21.150000000000002,-5.000000000000011,-3.102561226251051e-216,-6.000000000000012,0.0,2.6047870334163524e-215,0.0,0.0,7.331567163987999e-214,0.0,0.0,70.0,255.0,255.0,255.0
424,21.200000000000003,-5.000000000000011,-8.13149146439195e-217,-6.000000000000012,0.0,6.631815323290641e-215,0.0,0.0,7.1757688208125775e-214,0.0,0.0,70.0,255.0,255.0,255.0
425,21.25,-5.000000000000011,3.5292540970395904e-216,-6.000000000000012,0.0,9.78055585422893e-215,0.0,0.0,2.5948420599185455e-214,0.0,0.0,70.0,255.0,255.0,255.0
426,21.3,-5.000000000000011,8.967406707789736e-216,-6.000000000000012,0.0,9.226657383209187e-215,0.0,0.0,-7.169046432056545e-214,0.0,0.0,70.0,255.0,255.0,255.0
427,21.35,-5.000000000000011,1.2755911480248777e-215,-6.000000000000012,0.0,2.611509422172385e-215,0.0,0.0,-1.8947854934815623e-213,0.0,0.0,70.0,255.0,255.0,255.0
428,21.400000000000002,-5.000000000000011,1.1578916129962121e-215,-6.000000000000012,0.0,-9.721197551606437e-215,0.0,0.0,-2.7361781155106877e-213,0.0,0.0,70.0,255.0,255.0,255.0
429,21.450000000000003,-5.000000000000011,3.034713928642339e-216,-6.000000000000012,0.0,-2.4750271732934494e-214,0.0,0.0,-2.678033382264115e-213,0.0,0.0,70.0,255.0,255.0,255.0
430,21.5,-5.000000000000011,-1.3171355602972374e-215,-6.000000000000012,0.0,-3.650153137424759e-214,0.0,0.0,-9.684082405232687e-214,0.0,0.0,70.0,255.0,255.0,255.0
431,21.55,-5.000000000000011,-3.3466817445605253e-215,-6.000000000000012,0.0,-3.4434354138167182e-214,0.0,0.0,2.6755245526255408e-213,0.0,0.0,70.0,255.0,255.0,255.0
432,21.6,-5.000000000000011,-4.760570974113956e-215,-6.000000000000012,0.0,-9.746285847992185e-215,0.0,0.0,7.071435731117657e-213,0.0,0.0,70.0,255.0,255.0,255.0
433,21.650000000000002,-5.000000000000011,-4.321310329359744e-215,-6.000000000000012,0.0,3.628000317300939e-214,0.0,0.0,1.0211555745643952e-212,0.0,0.0,70.0,255.0,255.0,255.0
434,21.700000000000003,-5.000000000000011,-1.1325706568130167e-215,-6.000000000000012,0.0,9.236927160844733e-214,0.0,0.0,9.9945566469752e-213,0.0,0.0,70.0,255.0,255.0,255.0
435,21.75,-5.000000000000011,4.915616831484989e-215,-6.000000000000012,0.0,1.362255696427614e-213,0.0,0.0,3.614148756101222e-213,0.0,0.0,70.0,255.0,255.0,255.0
436,21.8,-5.000000000000011,1.2489986307463125e-214,-6.000000000000012,0.0,1.2851075916945955e-213,0.0,0.0,-9.985193567296506e-213,0.0,0.0,70.0,255.0,255.0,255.0
437,21.85,-5.000000000000011,1.7766692748430944e-214,-6.000000000000012,0.0,3.6373633969796342e-214,0.0,0.0,-2.6390957430989065e-212,0.0,0.0,70.0,255.0,255.0,255.0
438,21.900000000000002,-5.000000000000011,1.612734970444276e-214,-6.000000000000012,0.0,-1.3539881514043112e-213,0.0,0.0,-3.811004486706511e-212,0.0,0.0,70.0,255.0,255.0,255.0
439,21.950000000000003,-5.000000000000011,4.2268112343878325e-215,-6.000000000000012,0.0,-3.447268147008548e-213,0.0,0.0,-3.730019320563669e-212,0.0,0.0,70.0,255.0,255.0,255.0
440,22.0,-5.000000000000011,-1.834533176564272e-214,-6.000000000000012,0.0,-5.0840074719679806e-213,0.0,0.0,-1.3488186783881624e-212,0.0,0.0,70.0,255.0,255.0,255.0
441,22.05,-5.000000000000011,-4.661326348529198e-214,-6.000000000000012,0.0,-4.7960868253967105e-213,0.0,0.0,3.726524971656047e-212,0.0,0.0,70.0,255.0,255.0,255.0
442,22.1,-5.000000000000011,-6.630620001960983e-214,-6.000000000000012,0.0,-1.3574825003119328e-213,0.0,0.0,9.849239399283861e-212,0.0,0.0,70.0,255.0,255.0,255.0
443,22.150000000000002,-5.000000000000011,-6.0188088488411305e-214,-6.000000000000012,0.0,5.053152573887152e-213,0.0,0.0,1.422286237226165e-211,0.0,0.0,70.0,255.0,255.0,255.0
444,22.200000000000003,-5.000000000000011,-1.5774674280738304e-214,-6.000000000000012,0.0,1.2865379871949718e-212,0.0,0.0,1.3920621617557156e-211,0.0,0.0,70.0,255.0,255.0,255.0
445,22.25,-5.000000000000011,6.846571023108589e-214,-6.000000000000012,0.0,1.897377419144431e-212,0.0,0.0,5.033859837942527e-212,0.0,0.0,70.0,255.0,255.0,255.0
446,22.3,-5.000000000000011,1.7396306763370477e-213,-6.000000000000012,0.0,1.7899239709892246e-212,0.0,0.0,-1.3907580529894539e-211,0.0,0.0,70.0,255.0,255.0,255.0
447,22.35,-5.000000000000011,2.4745810733000836e-213,-6.000000000000012,0.0,5.066193661549769e-213,0.0,0.0,-3.6757861854036534e-211,0.0,0.0,70.0,255.0,255.0,255.0
448,22.400000000000002,-5.000000000000011,2.2462500424920246e-213,-6.000000000000012,0.0,-1.8858622144144293e-212,0.0,0.0,-5.30804450023401e-211,0.0,0.0,70.0,255.0,255.0,255.0
449,22.450000000000003,-5.000000000000011,5.88718858885654e-214,-6.000000000000012,0.0,-4.801425134079033e-212,0.0,0.0,-5.1952467149664965e-211,0.0,0.0,70.0,255.0,255.0,255.0
450,22.5,-5.000000000000011,-2.555175091587009e-213,-6.000000000000012,0.0,-7.081108929380926e-212,0.0,0.0,-1.8786620673381937e-211,0.0,0.0,70.0,255.0,255.0,255.0
451,22.55,-5.000000000000011,-6.492390070495272e-213,-6.000000000000012,0.0,-6.680087201417227e-212,0.0,0.0,5.190379714792213e-211,0.0,0.0,70.0,255.0,255.0,255.0
452,22.6,-5.000000000000011,-9.235262293004237e-213,-6.000000000000012,0.0,-1.8907292145887126e-212,0.0,0.0,1.3718220801686229e-210,0.0,0.0,70.0,255.0,255.0,255.0
453,22.650000000000002,-5.000000000000011,-8.383119285083984e-213,-6.000000000000012,0.0,7.038133600269003e-212,0.0,0.0,1.9809891763709866e-210,0.0,0.0,70.0,255.0,255.0,255.0
454,22.700000000000003,-5.000000000000011,-2.1971286927352335e-213,-6.000000000000012,0.0,1.7919162549121156e-211,0.0,0.0,1.9388924698110264e-210,0.0,0.0,70.0,255.0,255.0,255.0
455,22.75,-5.000000000000011,9.536043264037174e-213,-6.000000000000012,0.0,2.6427058298379267e-211,0.0,0.0,7.011262285558526e-211,0.0,0.0,70.0,255.0,255.0,255.0
456,22.8,-5.000000000000011,2.4229929605644033e-212,-6.000000000000012,0.0,2.4930424834679683e-211,0.0,0.0,-1.937076080617939e-210,0.0,0.0,70.0,255.0,255.0,255.0
457,22.85,-5.000000000000011,3.446646809871686e-212,-6.000000000000012,0.0,7.056297492199874e-212,0.0,0.0,-5.119709702134126e-210,0.0,0.0,70.0,255.0,255.0,255.0
458,22.900000000000002,-5.000000000000011,3.1286227097843907e-212,-6.000000000000012,0.0,-2.6266672186661574e-211,0.0,0.0,-7.393152255460547e-210,0.0,0.0,70.0,255.0,255.0,255.0
459,22.950000000000003,-5.000000000000011,8.199795912055281e-213,-6.000000000000012,0.0,-6.68752250624056e-211,0.0,0.0,-7.236045207747458e-210,0.0,0.0,70.0,255.0,255.0,255.0
460,23.0,-5.000000000000011,-3.55889979645617e-212,-6.000000000000012,0.0,-9.862712426413617e-211,0.0,0.0,-2.6166387074895923e-210,0.0,0.0,70.0,255.0,255.0,255.0
461,23.05,-5.000000000000011,-9.042732835208089e-212,-6.000000000000012,0.0,-9.304161213730152e-211,0.0,0.0,7.229266350992536e-210,0.0,0.0,70.0,255.0,255.0,255.0
462,23.1,-5.000000000000011,-1.2863061010186322e-211,-6.000000000000012,0.0,-2.63344607542108e-211,0.0,0.0,1.9107016728367883e-209,0.0,0.0,70.0,255.0,255.0,255.0
463,23.150000000000002,-5.000000000000011,-1.167617891062917e-211,-6.000000000000012,0.0,9.802855514637732e-211,0.0,0.0,2.7591619845471205e-209,0.0,0.0,70.0,255.0,255.0,255.0
464,23.200000000000003,-5.000000000000011,-3.060205495548589e-212,-6.000000000000012,0.0,2.4958173770050125e-210,0.0,0.0,2.700528836117879e-209,0.0,0.0,70.0,255.0,255.0,255.0
465,23.25,-5.000000000000011,1.3281994859420957e-211,-6.000000000000012,0.0,3.6808143875816526e-210,0.0,0.0,9.765428601402498e-210,0.0,0.0,70.0,255.0,255.0,255.0
466,23.3,-5.000000000000011,3.374793838026794e-211,-6.000000000000012,0.0,3.472360237145262e-210,0.0,0.0,-2.69799893233522e-209,0.0,0.0,70.0,255.0,255.0,255.0
467,23.35,-5.000000000000011,4.8005597230873585e-211,-6.000000000000012,0.0,9.828154552464326e-211,0.0,0.0,-7.130835721133738e-209,0.0,0.0,70.0,255.0,255.0,255.0
468,23.400000000000002,-5.000000000000011,4.3576092932732265e-211,-6.000000000000012,0.0,-3.6584754839884765e-210,0.0,0.0,-1.0297332712642422e-208,0.0,0.0,70.0,255.0,255.0,255.0
469,23.450000000000003,-5.000000000000011,1.1420842390988818e-211,-6.000000000000012,0.0,-9.314517257395991e-210,0.0,0.0,-1.0078510823696769e-208,0.0,0.0,70.0,255.0,255.0,255.0
470,23.5,-5.000000000000011,-4.956907964122765e-211,-6.000000000000012,0.0,-1.3736986307685247e-209,0.0,0.0,-3.644507569812044e-209,0.0,0.0,70.0,255.0,255.0,255.0
471,23.55,-5.000000000000011,-1.2594902068586365e-210,-6.000000000000012,0.0,-1.2959024827208035e-209,0.0,0.0,1.0069069094241623e-208,0.0,0.0,70.0,255.0,255.0,255.0
472,23.6,-5.000000000000011,-1.79159327913308e-210,-6.000000000000012,0.0,-3.667917213443624e-210,0.0,0.0,2.661264121169816e-208,0.0,0.0,70.0,255.0,255.0,255.0
473,23.650000000000002,-5.000000000000011,-1.626281928202999e-210,-6.000000000000012,0.0,1.3653616384490128e-209,0.0,0.0,3.843016886602258e-208,0.0,0.0,70.0,255.0,255.0,255.0
474,23.700000000000003,-5.000000000000011,-4.262316406840671e-211,-6.000000000000012,0.0,3.476225165257896e-209,0.0,0.0,3.7613514458669223e-208,0.0,0.0,70.0,255.0,255.0,255.0
475,23.75,-5.000000000000011,1.8499432370548972e-210,-6.000000000000012,0.0,5.126713084315935e-209,0.0,0.0,1.3601487419107903e-208,0.0,0.0,70.0,255.0,255.0,255.0
476,23.8,-5.000000000000011,4.700481443631868e-210,-6.000000000000012,0.0,4.8363739071686865e-209,0.0,0.0,-3.7578277444631293e-208,0.0,0.0,70.0,255.0,255.0,255.0
477,23.85,-5.000000000000011,6.686317144223584e-210,-6.000000000000012,0.0,1.3688853398528057e-209,0.0,0.0,-9.93197291256589e-208,0.0,0.0,70.0,255.0,255.0,255.0
478,23.900000000000002,-5.000000000000011,6.069366783484674e-210,-6.000000000000012,0.0,-5.095599005397204e-209,0.0,0.0,-1.4342334275144789e-207,0.0,0.0,70.0,255.0,255.0,255.0
479,23.950000000000003,-5.000000000000011,1.5907181388263788e-210,-6.000000000000012,0.0,-1.2973448935291984e-208,0.0,0.0,-1.4037554701098002e-207,0.0,0.0,70.0,255.0,255.0,255.0
480,24.0,-5.000000000000011,-6.90408215180731e-210,-6.000000000000012,0.0,-1.9133153706495206e-208,0.0,0.0,-5.076144210661961e-208,0.0,0.0,70.0,255.0,255.0,255.0
481,24.05,-5.000000000000011,-1.754243556766883e-209,-6.000000000000012,0.0,-1.8049593145953946e-208,0.0,0.0,1.4024404068428347e-207,0.0,0.0,70.0,255.0,255.0,255.0
482,24.1,-5.000000000000011,-2.4953675297761257e-209,-6.000000000000012,0.0,-5.10874963806686e-209,0.0,0.0,3.706662752909375e-207,0.0,0.0,70.0,255.0,255.0,255.0
483,24.150000000000002,-5.000000000000011,-2.265118520573569e-209,-6.000000000000012,0.0,1.9017034383139806e-208,0.0,0.0,5.3526320213976884e-207,0.0,0.0,70.0,255.0,255.0,255.0
484,24.200000000000003,-5.000000000000011,-5.9366409146214506e-210,-6.000000000000012,0.0,4.8417570575910025e-208,0.0,0.0,5.2388867358525086e-207,0.0,0.0,70.0,255.0,255.0,255.0
485,24.25,-5.000000000000011,2.576638537017434e-209,-6.000000000000012,0.0,7.1405901741664895e-208,0.0,0.0,1.8944428100737074e-207,0.0,0.0,70.0,255.0,255.0,255.0
486,24.3,-5.000000000000011,6.546926082704345e-209,-6.000000000000012,0.0,6.73619986766471e-208,0.0,0.0,-5.233978852925023e-207,0.0,0.0,70.0,255.0,255.0,255.0
487,24.35,-5.000000000000011,9.312838404682145e-209,-6.000000000000012,0.0,1.9066113212414668e-208,0.0,0.0,-1.3833453720380913e-206,0.0,0.0,70.0,255.0,255.0,255.0
488,24.400000000000002,-5.000000000000011,8.453537403945811e-209,-6.000000000000012,0.0,-7.097253852716204e-208,0.0,0.0,-1.9976294658076285e-206,0.0,0.0,70.0,255.0,255.0,255.0
489,24.450000000000003,-5.000000000000011,2.2155845519659411e-209,-6.000000000000012,0.0,-1.806968333683482e-207,0.0,0.0,-1.9551791473300242e-206,0.0,0.0,70.0,255.0,255.0,255.0
490,24.5,-5.000000000000011,-9.616145932889009e-209,-6.000000000000012,0.0,-2.6649045326016444e-207,0.0,0.0,-7.07015681922863e-207,0.0,0.0,70.0,255.0,255.0,255.0
491,24.55,-5.000000000000011,-2.4433460774050504e-208,-6.000000000000012,0.0,-2.513984015606345e-207,0.0,0.0,1.9533475004857277e-206,0.0,0.0,70.0,255.0,255.0,255.0
492,24.6,-5.000000000000011,-3.4755986088952455e-208,-6.000000000000012,0.0,-7.115570321159167e-208,0.0,0.0,5.162715212861427e-206,0.0,0.0,70.0,255.0,255.0,255.0
493,24.650000000000002,-5.000000000000011,-3.154903109520967e-208,-6.000000000000012,0.0,2.6487311972550826e-207,0.0,0.0,7.455254661090741e-206,0.0,0.0,70.0,255.0,255.0,255.0
494,24.700000000000003,-5.000000000000011,-8.268674116401628e-209,-6.000000000000012,0.0,6.743697628974824e-207,0.0,0.0,7.296827915734845e-206,0.0,0.0,70.0,255.0,255.0,255.0
495,24.75,-5.000000000000011,3.588794519453859e-208,-6.000000000000012,0.0,9.945559112989928e-207,0.0,0.0,2.638618446684081e-206,0.0,0.0,70.0,255.0,255.0,255.0
496,24.8,-5.000000000000011,9.118691701349765e-208,-6.000000000000012,0.0,9.382316075658906e-207,0.0,0.0,-7.289992116650407e-206,0.0,0.0,70.0,255.0,255.0,255.0
497,24.85,-5.000000000000011,1.2971110595112766e-207,-6.000000000000012,0.0,2.655566996339521e-207,0.0,0.0,-1.9267515479407617e-205,0.0,0.0,70.0,255.0,255.0,255.0
498,24.900000000000002,-5.000000000000011,1.1774258697689286e-207,-6.000000000000012,0.0,-9.885199403748711e-207,0.0,0.0,-2.7823389178555337e-205,0.0,0.0,70.0,255.0,255.0,255.0
499,24.950000000000003,-5.000000000000011,3.085911191364055e-208,-6.000000000000012,0.0,-2.516782218221582e-206,0.0,0.0,-2.7232132515609357e-205,0.0,0.0,70.0,255.0,255.0,255.0
500,25.0,-5.000000000000011,-1.3393563484526535e-207,-6.000000000000012,0.0,-3.7117331919358065e-206,0.0,0.0,-9.847458104813459e-206,0.0,0.0,70.0,255.0,255.0,255.0
501,25.05,-5.000000000000011,-3.4031420727994014e-207,-6.000000000000012,0.0,-3.5015280287029277e-206,0.0,0.0,2.7206620966115904e-205,0.0,0.0,70.0,255.0,255.0,255.0
502,25.1,-5.000000000000011,-4.840884377155582e-207,-6.000000000000012,0.0,-9.910710953242159e-207,0.0,0.0,7.190734670476903e-205,0.0,0.0,70.0,255.0,255.0,255.0
503,25.150000000000002,-5.000000000000011,-4.394213168123617e-207,-6.000000000000012,0.0,3.6892066417739755e-206,0.0,0.0,1.0383830205313061e-204,0.0,0.0,70.0,255.0,255.0,255.0
504,25.200000000000003,-5.000000000000011,-1.151677735381606e-207,-6.000000000000012,0.0,9.392759109988845e-206,0.0,0.0,1.0163170214670258e-204,0.0,0.0,70.0,255.0,255.0,255.0
505,25.25,-5.000000000000011,4.998545941865228e-207,-6.000000000000012,0.0,1.3852376856444234e-205,0.0,0.0,3.6751213972569752e-205,0.0,0.0,70.0,255.0,255.0,255.0
506,25.3,-5.000000000000011,1.270069912106263e-206,-6.000000000000012,0.0,1.306788050724582e-205,0.0,0.0,-1.0153649174781318e-204,0.0,0.0,70.0,255.0,255.0,255.0
507,25.35,-5.000000000000011,1.806642644911105e-206,-6.000000000000012,0.0,3.6987276816629144e-206,0.0,0.0,-2.683618713396685e-204,0.0,0.0,70.0,255.0,255.0,255.0
508,25.400000000000002,-5.000000000000011,1.6399426802725544e-206,-6.000000000000012,0.0,-1.3768306626721031e-205,0.0,0.0,-3.875298190339671e-204,0.0,0.0,70.0,255.0,255.0,255.0
509,25.450000000000003,-5.000000000000011,4.298119822390018e-207,-6.000000000000012,0.0,-3.50542542217338e-205,0.0,0.0,-3.7929467607120095e-204,0.0,0.0,70.0,255.0,255.0,255.0
510,25.5,-5.000000000000011,-1.8654827419008258e-206,-6.000000000000012,0.0,-5.169777423384113e-205,0.0,0.0,-1.3715739778546558e-204,0.0,0.0,70.0,255.0,255.0,255.0
511,25.55,-5.000000000000011,-4.739965441145111e-206,-6.000000000000012,0.0,-4.876999400028036e-205,0.0,0.0,3.7893934602513694e-204,0.0,0.0,70.0,255.0,255.0,255.0
512,25.6,-5.000000000000011,-6.742482141928862e-206,-6.000000000000012,0.0,-1.3803839631327436e-205,0.0,0.0,1.0015401386539052e-203,0.0,0.0,70.0,255.0,255.0,255.0
513,25.650000000000002,-5.000000000000011,-6.120349404277854e-206,-6.000000000000012,0.0,5.138401986511016e-205,0.0,0.0,1.446280974082738e-203,0.0,0.0,70.0,255.0,255.0,255.0
514,25.700000000000003,-5.000000000000011,-1.6040801554178464e-206,-6.000000000000012,0.0,1.3082425777694636e-204,0.0,0.0,1.415547002138101e-203,0.0,0.0,70.0,255.0,255.0,255.0
515,25.75,-5.000000000000011,6.962076373416781e-206,-6.000000000000012,0.0,1.9293872007892024e-204,0.0,0.0,5.118783771692919e-204,0.0,0.0,70.0,255.0,255.0,255.0
516,25.8,-5.000000000000011,1.768979185247418e-205,-6.000000000000012,0.0,1.8201209549387555e-204,0.0,0.0,-1.4142208923527342e-203,0.0,0.0,70.0,255.0,255.0,255.0
517,25.85,-5.000000000000011,2.5163285922804337e-205,-6.000000000000012,0.0,5.151663084364682e-205,0.0,0.0,-3.7377986832759506e-203,0.0,0.0,70.0,255.0,255.0,255.0
518,25.900000000000002,-5.000000000000011,2.2841454936838863e-205,-6.000000000000012,0.0,-1.9176777283371954e-204,0.0,0.0,-5.397594077296984e-203,0.0,0.0,70.0,255.0,255.0,255.0
519,25.950000000000003,-5.000000000000011,5.986508639432382e-206,-6.000000000000012,0.0,-4.882427768860516e-204,0.0,0.0,-5.282893332481202e-203,0.0,0.0,70.0,255.0,255.0,255.0
520,26.0,-5.000000000000011,-2.5982822751766304e-205,-6.000000000000012,0.0,-7.200571060818398e-204,0.0,0.0,-1.9103561108917042e-203,0.0,0.0,70.0,255.0,255.0,255.0
521,26.05,-5.000000000000011,-6.601920196875161e-205,-6.000000000000012,0.0,-6.79278387975222e-204,0.0,0.0,5.277944223385798e-203,0.0,0.0,70.0,255.0,255.0,255.0
522,26.1,-5.000000000000011,-9.391066154928852e-205,-6.000000000000012,0.0,-1.9226268374326e-204,0.0,0.0,1.39496545944499e-202,0.0,0.0,70.0,255.0,255.0,255.0
523,26.150000000000002,-5.000000000000011,-8.524547034307761e-205,-6.000000000000012,0.0,7.156870714697681e-204,0.0,0.0,2.01440953351052e-202,0.0,0.0,70.0,255.0,255.0,255.0
524,26.200000000000003,-5.000000000000011,-2.2341954402311704e-205,-6.000000000000012,0.0,1.8221468497672602e-203,0.0,0.0,1.971602632778672e-202,0.0,0.0,70.0,255.0,255.0,255.0
525,26.25,-5.000000000000011,9.69692146336484e-205,-6.000000000000012,0.0,2.68728970424844e-203,0.0,0.0,7.129546066397526e-203,0.0,0.0,70.0,255.0,255.0,255.0
526,26.3,-5.000000000000011,2.4638701602253228e-204,-6.000000000000012,0.0,2.5351014564070128e-203,0.0,0.0,-1.9697556001190468e-202,0.0,0.0,70.0,255.0,255.0,255.0
527,26.35,-5.000000000000011,3.504793602743497e-204,-6.000000000000012,0.0,7.175341041293932e-204,0.0,0.0,-5.206081969452364e-202,0.0,0.0,70.0,255.0,255.0,255.0
528,26.400000000000002,-5.000000000000011,3.181404264354716e-204,-6.000000000000012,0.0,-2.670980513045352e-203,0.0,0.0,-7.517878726312382e-202,0.0,0.0,70.0,255.0,255.0,255.0
529,26.450000000000003,-5.000000000000011,8.338130896981445e-205,-6.000000000000012,0.0,-6.800344622182989e-203,0.0,0.0,-7.358121197866565e-202,0.0,0.0,70.0,255.0,255.0,255.0
530,26.5,-5.000000000000011,-3.618940357828273e-204,-6.000000000000012,0.0,-1.0029101710911916e-202,0.0,0.0,-2.660782815469841e-202,0.0,0.0,70.0,255.0,255.0,255.0
531,26.55,-5.000000000000011,-9.195288621213772e-204,-6.000000000000012,0.0,-9.46112743765283e-203,0.0,0.0,7.351227978137602e-202,0.0,0.0,70.0,255.0,255.0,255.0
532,26.6,-5.000000000000011,-1.3080067795481103e-203,-6.000000000000012,0.0,-2.677873732774315e-203,0.0,0.0,1.9429362418364472e-201,0.0,0.0,70.0,255.0,255.0,255.0
533,26.650000000000002,-5.000000000000011,-1.1873162353988087e-203,-6.000000000000012,0.0,9.968234980711644e-203,0.0,0.0,2.805710537173901e-201,0.0,0.0,70.0,255.0,255.0,255.0
534,26.700000000000003,-5.000000000000011,-3.111832814769457e-204,-6.000000000000012,0.0,2.5379231638964694e-202,0.0,0.0,2.7460882158687584e-201,0.0,0.0,70.0,255.0,255.0,255.0
535,26.75,-5.000000000000011,1.3506069284976608e-203,-6.000000000000012,0.0,3.742911713939923e-202,0.0,0.0,9.930176655239609e-202,0.0,0.0,70.0,255.0,255.0,255.0
536,26.8,-5.000000000000011,3.4317284324629773e-203,-6.000000000000012,0.0,3.5309408294204304e-202,0.0,0.0,-2.743515631243137e-201,0.0,0.0,70.0,255.0,255.0,255.0
537,26.85,-5.000000000000011,4.8815477579180914e-203,-6.000000000000012,0.0,9.993960826967858e-203,0.0,0.0,-7.251136770400555e-201,0.0,0.0,70.0,255.0,255.0,255.0
538,26.900000000000002,-5.000000000000011,4.431124515159763e-203,-6.000000000000012,0.0,-3.7201959409801243e-202,0.0,0.0,-1.0471054276064366e-200,0.0,0.0,70.0,255.0,255.0,255.0
539,26.950000000000003,-5.000000000000011,1.1613518169379674e-203,-6.000000000000012,0.0,-9.47165819336758e-202,0.0,0.0,-1.0248540743688374e-200,0.0,0.0,70.0,255.0,255.0,255.0
540,27.0,-5.000000000000011,-5.040533678207818e-203,-6.000000000000012,0.0,-1.39687366846685e-201,0.0,0.0,-3.705992380548854e-201,0.0,0.0,70.0,255.0,255.0,255.0
541,27.05,-5.000000000000011,-1.2807384867730533e-202,-6.000000000000012,0.0,-1.3177650573916434e-201,0.0,0.0,1.0238939727158787e-200,0.0,0.0,70.0,255.0,255.0,255.0
542,27.1,-5.000000000000011,-1.8218184252124254e-202,-6.000000000000012,0.0,-3.729796957509712e-202,0.0,0.0,2.706161083976575e-200,0.0,0.0,70.0,255.0,255.0,255.0
543,27.150000000000002,-5.000000000000011,-1.6537181825240245e-202,-6.000000000000012,0.0,1.388396026584932e-201,0.0,0.0,3.907850656708355e-200,0.0,0.0,70.0,255.0,255.0,255.0
544,27.200000000000003,-5.000000000000011,-4.334223986274934e-203,-6.000000000000012,0.0,3.534870960957384e-201,0.0,0.0,3.8248074758884756e-200,0.0,0.0,70.0,255.0,255.0,255.0
545,27.25,-5.000000000000011,1.8811527784333598e-202,-6.000000000000012,0.0,5.213203502473408e-201,0.0,0.0,1.3830951856671478e-200,0.0,0.0,70.0,255.0,255.0,255.0
546,27.3,-5.000000000000011,4.779781103845915e-202,-6.000000000000012,0.0,4.917966146624532e-201,0.0,0.0,-3.821224327739203e-200,0.0,0.0,70.0,255.0,255.0,255.0
547,27.35,-5.000000000000011,6.799118925057891e-202,-6.000000000000012,0.0,1.3919791747342051e-201,0.0,0.0,-1.0099530658866247e-199,0.0,0.0,70.0,255.0,255.0,255.0
548,27.400000000000002,-5.000000000000011,6.17176027858012e-202,-6.000000000000012,0.0,-5.181564512241716e-201,0.0,0.0,-1.458429719922698e-199,0.0,0.0,70.0,255.0,255.0,255.0
549,27.450000000000003,-5.000000000000011,1.6175544128161756e-202,-6.000000000000012,0.0,-1.3192318024492776e-200,0.0,0.0,-1.4274375829185061e-199,0.0,0.0,70.0,255.0,255.0,255.0
550,27.5,-5.000000000000011,-7.020557745912658e-202,-6.000000000000012,0.0,-1.9455940341426777e-200,0.0,0.0,-5.1617815046137073e-200,0.0,0.0,70.0,255.0,255.0,255.0
551,27.55,-5.000000000000011,-1.7838385928610603e-201,-6.000000000000012,0.0,-1.8354099529106484e-200,0.0,0.0,1.4261003338240922e-199,0.0,0.0,70.0,255.0,255.0,255.0
552,27.6,-5.000000000000011,-2.5374657275019143e-201,-6.000000000000012,0.0,-5.1949370031858556e-201,0.0,0.0,3.7691961551488423e-199,0.0,0.0,70.0,255.0,255.0,255.0
553,27.650000000000002,-5.000000000000011,-2.303332293179646e-201,-6.000000000000012,0.0,1.9337862022381938e-200,0.0,0.0,5.442933814019959e-199,0.0,0.0,70.0,255.0,255.0,255.0
554,27.700000000000003,-5.000000000000011,-6.0367952526372045e-202,-6.000000000000012,0.0,4.923440113701373e-200,0.0,0.0,5.327269584085176e-199,0.0,0.0,70.0,255.0,255.0,255.0
555,27.75,-5.000000000000011,2.620107820521727e-201,-6.000000000000012,0.0,7.26105578632337e-200,0.0,0.0,1.926403083278766e-199,0.0,0.0,70.0,255.0,255.0,255.0
556,27.8,-5.000000000000011,6.65737626105965e-201,-6.000000000000012,0.0,6.849843196980139e-200,0.0,0.0,-5.322278902522452e-199,0.0,0.0,70.0,255.0,255.0,255.0
557,27.85,-5.000000000000011,9.469951017501866e-201,-6.000000000000012,0.0,1.938776883800918e-200,0.0,0.0,-1.4066831554708737e-198,0.0,0.0,70.0,255.0,255.0,255.0
558,27.900000000000002,-5.000000000000011,8.596153144860568e-201,-6.000000000000012,0.0,-7.216988357728601e-200,0.0,0.0,-2.0313305536157125e-198,0.0,0.0,70.0,255.0,255.0,255.0
559,27.950000000000003,-5.000000000000011,2.2529626597732643e-201,-6.000000000000012,0.0,-1.8374528652356209e-199,0.0,0.0,-1.9881640753422202e-198,0.0,0.0,70.0,255.0,255.0,255.0
560,28.0,-5.000000000000011,-9.778375507495641e-201,-6.000000000000012,0.0,-2.7098629111150803e-199,0.0,0.0,-7.189434182653695e-199,0.0,0.0,70.0,255.0,255.0,255.0
561,28.05,-5.000000000000011,-2.4845666451377537e-200,-6.000000000000012,0.0,-2.5563962835009904e-199,0.0,0.0,1.9863015276265713e-198,0.0,0.0,70.0,255.0,255.0,255.0
562,28.1,-5.000000000000011,-3.534233834250555e-200,-6.000000000000012,0.0,-7.235613834885091e-200,0.0,0.0,5.249813006368612e-198,0.0,0.0,70.0,255.0,255.0,255.0
563,28.150000000000002,-5.000000000000011,-3.208128028626263e-200,-6.000000000000012,0.0,2.6934167228676217e-199,0.0,0.0,7.581028833060855e-198,0.0,0.0,70.0,255.0,255.0,255.0
564,28.200000000000003,-5.000000000000011,-8.408171113829333e-201,-6.000000000000012,0.0,6.857467449572346e-199,0.0,0.0,7.41992934296036e-198,0.0,0.0,70.0,255.0,255.0,255.0
565,28.25,-5.000000000000011,3.649339420946084e-200,-6.000000000000012,0.0,1.0113346065827981e-198,0.0,0.0,2.6831333647336015e-198,0.0,0.0,70.0,255.0,255.0,255.0
566,28.3,-5.000000000000011,9.272528954445049e-200,-6.000000000000012,0.0,9.540600814305948e-199,0.0,0.0,-7.412978220254036e-198,0.0,0.0,70.0,255.0,255.0,255.0
567,28.35,-5.000000000000011,1.3189940235252032e-199,-6.000000000000012,0.0,2.7003678455739454e-199,0.0,0.0,-1.9592568870003573e-197,0.0,0.0,70.0,255.0,255.0,255.0
568,28.400000000000002,-5.000000000000011,1.1972896800018994e-199,-6.000000000000012,0.0,-1.0051968055697624e-198,0.0,0.0,-2.8292784778627716e-197,0.0,0.0,70.0,255.0,255.0,255.0
569,28.450000000000003,-5.000000000000011,3.1379721795544073e-200,-6.000000000000012,0.0,-2.559241693305377e-198,0.0,0.0,-2.7691553296499236e-197,0.0,0.0,70.0,255.0,255.0,255.0
570,28.5,-5.000000000000011,-1.3619520133034777e-199,-6.000000000000012,0.0,-3.774352135219686e-198,0.0,0.0,-1.0013590040669031e-197,0.0,0.0,70.0,255.0,255.0,255.0
571,28.55,-5.000000000000011,-3.4605549172642454e-199,-6.000000000000012,0.0,-3.56060069737228e-198,0.0,0.0,2.766561135338959e-197,0.0,0.0,70.0,255.0,255.0,255.0
572,28.6,-5.000000000000011,-4.922552710675758e-199,-6.000000000000012,0.0,-1.0077909998807267e-198,0.0,0.0,7.312046247364567e-197,0.0,0.0,70.0,255.0,255.0,255.0
573,28.650000000000002,-5.000000000000011,-4.468345917144972e-199,-6.000000000000012,0.0,3.751445549992287e-198,0.0,0.0,1.0559011028144998e-196,0.0,0.0,70.0,255.0,255.0,255.0
574,28.700000000000003,-5.000000000000011,-1.1711071606834711e-199,-6.000000000000012,0.0,9.551220028264272e-198,0.0,0.0,1.0334628384303658e-196,0.0,0.0,70.0,255.0,255.0,255.0
575,28.75,-5.000000000000011,5.0828741111193005e-199,-6.000000000000012,0.0,1.4086073934295945e-197,0.0,0.0,3.737122679794254e-197,0.0,0.0,70.0,255.0,255.0,255.0
576,28.8,-5.000000000000011,1.2914966773612474e-198,-6.000000000000012,0.0,1.3288342708058526e-197,0.0,0.0,-1.0324946719330431e-196,0.0,0.0,70.0,255.0,255.0,255.0
577,28.85,-5.000000000000011,1.8371216819177827e-198,-6.000000000000012,0.0,3.761127214965513e-198,0.0,0.0,-2.728892810245791e-196,0.0,0.0,70.0,255.0,255.0,255.0
578,28.900000000000002,-5.000000000000011,1.6676093988577987e-198,-6.000000000000012,0.0,-1.4000585394399388e-197,0.0,0.0,-3.9406765634717224e-196,0.0,0.0,70.0,255.0,255.0,255.0
579,28.950000000000003,-5.000000000000011,4.370631424778439e-199,-6.000000000000012,0.0,-3.564563841975171e-197,0.0,0.0,-3.85693582075647e-196,0.0,0.0,70.0,255.0,255.0,255.0
580,29.0,-5.000000000000011,-1.8969544431173724e-198,-6.000000000000012,0.0,-5.256994360196409e-197,0.0,0.0,-1.3947131715110114e-196,0.0,0.0,70.0,255.0,255.0,255.0
581,29.05,-5.000000000000011,-4.819931217718565e-198,-6.000000000000012,0.0,-4.9592770134861825e-197,0.0,0.0,3.8533225741982764e-196,0.0,0.0,70.0,255.0,255.0,255.0
582,29.1,-5.000000000000011,-6.856231456603555e-198,-6.000000000000012,0.0,-1.403671785998133e-197,0.0,0.0,1.0184366616246707e-195,0.0,0.0,70.0,255.0,255.0,255.0
583,29.150000000000002,-5.000000000000011,-6.223603003716698e-198,-6.000000000000012,0.0,5.2250896027605253e-197,0.0,0.0,1.4706805151072388e-195,0.0,0.0,70.0,255.0,255.0,255.0
584,29.200000000000003,-5.000000000000011,-1.6311418538430292e-198,-6.000000000000012,0.0,1.3303133365074257e-196,0.0,0.0,1.4394280444595515e-195,0.0,0.0,70.0,255.0,255.0,255.0
585,29.25,-5.000000000000011,7.07953036135756e-198,-6.000000000000012,0.0,1.961937004735604e-196,0.0,0.0,5.205140418064619e-196,0.0,0.0,70.0,255.0,255.0,255.0
586,29.3,-5.000000000000011,1.7988228193513012e-197,-6.000000000000012,0.0,1.8508273783138876e-196,0.0,0.0,-1.4380795624860064e-195,0.0,0.0,70.0,255.0,255.0,255.0
587,29.35,-5.000000000000011,2.5587804144496436e-197,-6.000000000000012,0.0,5.238574422495977e-197,0.0,0.0,-3.800857365474104e-195,0.0,0.0,70.0,255.0,255.0,255.0
588,29.400000000000002,-5.000000000000011,2.322680261600899e-197,-6.000000000000012,0.0,-1.950029987160216e-196,0.0,0.0,-5.488654404081781e-195,0.0,0.0,70.0,255.0,255.0,255.0
589,29.450000000000003,-5.000000000000011,6.087504272894274e-198,-6.000000000000012,0.0,-4.964796961832184e-196,0.0,0.0,-5.372018595762558e-195,0.0,0.0,70.0,255.0,255.0,255.0
590,29.5,-5.000000000000011,-2.6421167002312857e-197,-6.000000000000012,0.0,-7.322048582922775e-196,0.0,0.0,-1.9425848500747475e-195,0.0,0.0,70.0,255.0,255.0,255.0
591,29.55,-5.000000000000011,-6.713298155633347e-197,-6.000000000000012,0.0,-6.907381811906932e-196,0.0,0.0,5.366985992524196e-195,0.0,0.0,70.0,255.0,255.0,255.0
592,29.6,-5.000000000000011,-9.549498512138217e-197,-6.000000000000012,0.0,-1.9550625903985785e-196,0.0,0.0,1.4184992800271743e-194,0.0,0.0,70.0,255.0,255.0,255.0
593,29.650000000000002,-5.000000000000011,-8.668360746031926e-197,-6.000000000000012,0.0,7.277610988364814e-196,0.0,0.0,2.0483937101219892e-194,0.0,0.0,70.0,255.0,255.0,255.0
594,29.700000000000003,-5.000000000000011,-2.271887523773404e-197,-6.000000000000012,0.0,1.8528874510821316e-195,0.0,0.0,2.0048646338590683e-194,0.0,0.0,70.0,255.0,255.0,255.0
595,29.75,-5.000000000000011,9.860513764789392e-197,-6.000000000000012,0.0,2.7326257326955497e-195,0.0,0.0,7.249825358492517e-195,0.0,0.0,70.0,255.0,255.0,255.0
596,29.8,-5.000000000000011,2.505436980318209e-196,-6.000000000000012,0.0,2.5778699869313834e-195,0.0,0.0,-2.002986440761078e-194,0.0,0.0,70.0,255.0,255.0,255.0
597,29.85,-5.000000000000011,3.563921363410323e-196,-6.000000000000012,0.0,7.296392919344714e-196,0.0,0.0,-5.2939113835612866e-194,0.0,0.0,70.0,255.0,255.0,255.0
598,29.900000000000002,-5.000000000000011,3.2350762722526805e-196,-6.000000000000012,0.0,-2.7160413966299037e-195,0.0,0.0,-7.644709400079778e-194,0.0,0.0,70.0,255.0,255.0,255.0
599,29.950000000000003,-5.000000000000011,8.478799667804191e-197,-6.000000000000012,0.0,-6.915070108145306e-195,0.0,0.0,-7.48225667586001e-194,0.0,0.0,70.0,255.0,255.0,255.0
600,30.0,-5.000000000000011,-3.6799938358926264e-196,-6.000000000000012,0.0,-1.0198298072489914e-194,0.0,0.0,-2.705671658389535e-194,0.0,0.0,70.0,255.0,255.0,255.0
601,30.05,-5.000000000000011,-9.350418105709497e-196,-6.000000000000012,0.0,-9.620741766534841e-195,0.0,0.0,7.475247163791886e-194,0.0,0.0,70.0,255.0,255.0,255.0
602,30.1,-5.000000000000011,-1.3300735602427468e-195,-6.000000000000012,0.0,-2.723050908698028e-195,0.0,0.0,1.9757146254217974e-193,0.0,0.0,70.0,255.0,255.0,255.0
603,30.150000000000002,-5.000000000000011,-1.2073469014407525e-195,-6.000000000000012,0.0,1.0136404487683133e-194,0.0,0.0,2.8530443890197124e-193,0.0,0.0,70.0,255.0,255.0,255.0
604,30.200000000000003,-5.000000000000011,-3.1643311147443346e-196,-6.000000000000012,0.0,2.5807392981499096e-194,0.0,0.0,2.792416206958099e-193,0.0,0.0,70.0,255.0,255.0,255.0
605,30.25,-5.000000000000011,1.3733923967091572e-195,-6.000000000000012,0.0,3.806056655726412e-194,0.0,0.0,1.0097704097708884e-193,0.0,0.0,70.0,255.0,255.0,255.0
606,30.3,-5.000000000000011,3.489623544251979e-195,-6.000000000000012,0.0,3.590509707920798e-194,0.0,0.0,-2.7898002214406477e-193,0.0,0.0,70.0,255.0,255.0,255.0
607,30.35,-5.000000000000011,4.9639021046299556e-195,-6.000000000000012,0.0,1.0162564342857643e-194,0.0,0.0,-7.373467363331063e-193,0.0,0.0,70.0,255.0,255.0,255.0
608,30.400000000000002,-5.000000000000011,4.505879978537744e-195,-6.000000000000012,0.0,-3.782957655410264e-194,0.0,0.0,-1.0647706616070872e-192,0.0,0.0,70.0,255.0,255.0,255.0
609,30.450000000000003,-5.000000000000011,1.1809444492196916e-195,-6.000000000000012,0.0,-9.631450181785107e-194,0.0,0.0,-1.0421439160246391e-192,0.0,0.0,70.0,255.0,255.0,255.0
610,30.5,-5.000000000000011,-5.1255702032473646e-195,-6.000000000000012,0.0,-1.4204396815656656e-193,0.0,0.0,-3.768514473244599e-193,0.0,0.0,70.0,255.0,255.0,255.0
611,30.55,-5.000000000000011,-1.3023452366436964e-194,-6.000000000000012,0.0,-1.3399964655029706e-193,0.0,0.0,1.0411676169383403e-192,0.0,0.0,70.0,255.0,255.0,255.0
612,30.6,-5.000000000000011,-1.8525534858277072e-194,-6.000000000000012,0.0,-3.792720646273253e-194,0.0,0.0,2.7518154827902446e-192,0.0,0.0,70.0,255.0,255.0,255.0
613,30.650000000000002,-5.000000000000011,-1.6816173012710217e-194,-6.000000000000012,0.0,1.411819017287274e-193,0.0,0.0,3.973778207526376e-192,0.0,0.0,70.0,255.0,255.0,255.0
614,30.700000000000003,-5.000000000000011,-4.407344685404331e-195,-6.000000000000012,0.0,3.594506142899051e-193,0.0,0.0,3.889334043402747e-192,0.0,0.0,70.0,255.0,255.0,255.0
615,30.75,-5.000000000000011,1.91288884162803e-194,-6.000000000000012,0.0,5.301153060690021e-193,0.0,0.0,1.4064287483207506e-192,0.0,0.0,70.0,255.0,255.0,255.0
616,30.8,-5.000000000000011,4.8604185921495883e-194,-6.000000000000012,0.0,5.000934891219802e-193,0.0,0.0,-3.885690445609297e-192,0.0,0.0,70.0,255.0,255.0,255.0
617,30.85,-5.000000000000011,6.913823732847832e-194,-6.000000000000012,0.0,1.4154626150807243e-193,0.0,0.0,-1.026991519482787e-191,0.0,0.0,70.0,255.0,255.0,255.0
618,30.900000000000002,-5.000000000000011,6.275881207230313e-194,-6.000000000000012,0.0,-5.268980303608068e-193,0.0,0.0,-1.4830342168498422e-191,0.0,0.0,70.0,255.0,255.0,255.0
619,30.950000000000003,-5.000000000000011,1.6448434292397636e-194,-6.000000000000012,0.0,-1.34148795534177e-192,0.0,0.0,-1.451519225758635e-191,0.0,0.0,70.0,255.0,255.0,255.0
620,31.0,-5.000000000000011,-7.138998346187386e-194,-6.000000000000012,0.0,-1.978417256119442e-192,0.0,0.0,-5.248863545958543e-192,0.0,0.0,70.0,255.0,255.0,255.0
621,31.05,-5.000000000000011,-1.8139329131954656e-193,-6.000000000000012,0.0,-1.8663743099376242e-192,0.0,0.0,1.450159416549884e-191,0.0,0.0,70.0,255.0,255.0,255.0
622,31.1,-5.000000000000011,-2.580274144556363e-193,-6.000000000000012,0.0,-5.28257839569558e-193,0.0,0.0,3.832784529652124e-191,0.0,0.0,70.0,255.0,255.0,255.0
623,31.150000000000002,-5.000000000000011,-2.3421907527650236e-193,-6.000000000000012,0.0,1.9664102197145e-192,0.0,0.0,5.5347590466467316e-191,0.0,0.0,70.0,255.0,255.0,255.0
624,31.200000000000003,-5.000000000000011,-6.138639248418628e-194,-6.000000000000012,0.0,5.006501207077174e-192,0.0,0.0,5.417143498694265e-191,0.0,0.0,70.0,255.0,255.0,255.0
625,31.25,-5.000000000000011,2.664310454312151e-193,-6.000000000000012,0.0,7.383553718408766e-192,0.0,0.0,1.958902543551343e-191,0.0,0.0,70.0,255.0,255.0,255.0
626,31.3,-5.000000000000011,6.769689793566904e-193,-6.000000000000012,0.0,6.965403750628517e-192,0.0,0.0,-5.4120686216386074e-191,0.0,0.0,70.0,255.0,255.0,255.0
627,31.35,-5.000000000000011,9.629714204940668e-193,-6.000000000000012,0.0,1.9714850967701583e-192,0.0,0.0,-1.4304146599125709e-190,0.0,0.0,70.0,255.0,255.0,255.0
628,31.400000000000002,-5.000000000000011,8.741174890337062e-193,-6.000000000000012,0.0,-7.338742848497194e-192,0.0,0.0,-2.0656001969737077e-190,0.0,0.0,70.0,255.0,255.0,255.0
629,31.450000000000003,-5.000000000000011,2.2909713564434735e-193,-6.000000000000012,0.0,-1.868451687296692e-191,0.0,0.0,-2.0217054769018422e-190,0.0,0.0,70.0,255.0,255.0,255.0
630,31.5,-5.000000000000011,-9.94334198262986e-193,-6.000000000000012,0.0,-2.7555797617515617e-191,0.0,0.0,-7.31072381960952e-191,0.0,0.0,70.0,255.0,255.0,255.0
631,31.55,-5.000000000000011,-2.526482626107214e-192,-6.000000000000012,0.0,-2.599524069257644e-191,0.0,0.0,2.0198115070004545e-190,0.0,0.0,70.0,255.0,255.0,255.0
632,31.6,-5.000000000000011,-3.59385826752063e-192,-6.000000000000012,0.0,-7.357682547511072e-192,0.0,0.0,5.338380186685071e-190,0.0,0.0,70.0,255.0,255.0,255.0
633,31.650000000000002,-5.000000000000011,-3.2622508808583214e-192,-6.000000000000012,0.0,2.738856117427427e-191,0.0,0.0,7.70892488323016e-190,0.0,0.0,70.0,255.0,255.0,255.0
634,31.700000000000003,-5.000000000000011,-8.550021500932028e-193,-6.000000000000012,0.0,6.973156628479052e-191,0.0,0.0,7.545107557738109e-190,0.0,0.0,70.0,255.0,255.0,255.0
635,31.75,-5.000000000000011,3.7109057476207305e-192,-6.000000000000012,0.0,1.0283963675165536e-190,0.0,0.0,2.7283992734886317e-190,0.0,0.0,70.0,255.0,255.0,255.0
636,31.8,-5.000000000000011,9.428961525072335e-192,-6.000000000000012,0.0,9.701555901967684e-191,0.0,0.0,-7.538039165838511e-190,0.0,0.0,70.0,255.0,255.0,255.0
637,31.85,-5.000000000000011,1.3412461649588415e-191,-6.000000000000012,0.0,2.7459245093270252e-191,0.0,0.0,-1.9923106086827944e-189,0.0,0.0,70.0,255.0,255.0,255.0
638,31.900000000000002,-5.000000000000011,1.217488603439936e-191,-6.000000000000012,0.0,-1.0221550184860263e-190,0.0,0.0,-2.8770099335946685e-189,0.0,0.0,70.0,255.0,255.0,255.0
639,31.950000000000003,-5.000000000000011,3.1909114647281516e-192,-6.000000000000012,0.0,-2.6024174826619663e-190,0.0,0.0,-2.8158724754050353e-189,0.0,0.0,70.0,255.0,255.0,255.0
640,32.0,-5.000000000000011,-1.3849288792220304e-191,-6.000000000000012,0.0,-3.838027493891062e-190,0.0,0.0,-1.018252471199342e-189,0.0,0.0,70.0,255.0,255.0,255.0
641,32.050000000000004,-5.000000000000011,-3.518936347418247e-191,-6.000000000000012,0.0,-3.6206699538613083e-190,0.0,0.0,2.8132345156353612e-189,0.0,0.0,70.0,255.0,255.0,255.0
642,32.1,-5.000000000000011,-5.0055988330833386e-191,-6.000000000000012,0.0,-1.0247929782557002e-190,0.0,0.0,7.43540441606268e-189,0.0,0.0,70.0,255.0,255.0,255.0
643,32.15,-5.000000000000011,-4.543729325673947e-191,-6.000000000000012,0.0,3.8147344622013727e-190,0.0,0.0,1.0737147246055683e-188,0.0,0.0,70.0,255.0,255.0,255.0
644,32.2,-5.000000000000011,-1.1908643708819653e-191,-6.000000000000012,0.0,9.712354267799984e-190,0.0,0.0,1.0508979145846351e-188,0.0,0.0,70.0,255.0,255.0,255.0
645,32.25,-5.000000000000011,5.1686249421260365e-191,-6.000000000000012,0.0,1.4323713608047723e-189,0.0,0.0,3.8001699574484775e-189,0.0,0.0,70.0,255.0,255.0,255.0
646,32.300000000000004,-5.000000000000011,1.313284923716576e-190,-6.000000000000012,0.0,1.3512524225248462e-189,0.0,0.0,-1.0499134145957639e-188,0.0,0.0,70.0,255.0,255.0,255.0
647,32.35,-5.000000000000011,1.86811491673745e-190,-6.000000000000012,0.0,3.8245794620900827e-190,0.0,0.0,-2.7749307055567916e-188,0.0,0.0,70.0,255.0,255.0,255.0
648,32.4,-5.000000000000011,1.6957428699255842e-190,-6.000000000000012,0.0,-1.4236782830319457e-189,0.0,0.0,-4.0071579050628045e-188,0.0,0.0,70.0,255.0,255.0,255.0
649,32.45,-5.000000000000011,4.4443663370550424e-191,-6.000000000000012,0.0,-3.624699958853796e-189,0.0,0.0,-3.922004410798035e-188,0.0,0.0,70.0,255.0,255.0,255.0
650,32.5,-5.000000000000011,-1.928957088928212e-190,-6.000000000000012,0.0,-5.3456826938299815e-189,0.0,0.0,-1.4182427358594584e-188,0.0,0.0,70.0,255.0,255.0,255.0
651,32.550000000000004,-5.000000000000011,-4.901246060124478e-190,-6.000000000000012,0.0,-5.042942694713255e-189,0.0,0.0,3.918330206819516e-188,0.0,0.0,70.0,255.0,255.0,255.0
652,32.6,-5.000000000000011,-6.971899783641467e-190,-6.000000000000012,0.0,-1.4273524870104654e-189,0.0,0.0,1.03561823806209e-187,0.0,0.0,70.0,255.0,255.0,255.0
653,32.65,-5.000000000000011,-6.328598547134943e-190,-6.000000000000012,0.0,5.313239685907645e-189,0.0,0.0,1.4954916895645652e-187,0.0,0.0,70.0,255.0,255.0,255.0
654,32.7,-5.000000000000011,-1.658660097733821e-190,-6.000000000000012,0.0,1.3527564408635185e-188,0.0,0.0,1.4637119728607508e-187,0.0,0.0,70.0,255.0,255.0,255.0
655,32.75,-5.000000000000011,7.198965861500243e-190,-6.000000000000012,0.0,1.9950359414515153e-188,0.0,0.0,5.2929539476929886e-188,0.0,0.0,70.0,255.0,255.0,255.0
656,32.800000000000004,-5.000000000000011,1.8291699316781336e-189,-6.000000000000012,0.0,1.8820518356328174e-188,0.0,0.0,-1.4623407412682305e-187,0.0,0.0,70.0,255.0,255.0,255.0
657,32.85,-5.000000000000011,2.601948421782842e-189,-6.000000000000012,0.0,5.326952001832848e-189,0.0,0.0,-3.8649798816926816e-187,0.0,0.0,70.0,255.0,255.0,255.0
658,32.9,-5.000000000000011,2.3618651318614184e-189,-6.000000000000012,0.0,-1.982928046059864e-188,0.0,0.0,-5.581250967751981e-187,0.0,0.0,70.0,255.0,255.0,255.0
659,32.95,-5.000000000000011,6.190203757229779e-190,-6.000000000000012,0.0,-5.0485557675686964e-188,0.0,0.0,-5.462647450363202e-187,0.0,0.0,70.0,255.0,255.0,255.0
660,33.0,-5.000000000000011,-2.6866906357072776e-189,-6.000000000000012,0.0,-7.445575496423067e-188,0.0,0.0,-1.975357305491249e-187,0.0,0.0,70.0,255.0,255.0,255.0
661,33.050000000000004,-5.000000000000011,-6.826555120700089e-189,-6.000000000000012,0.0,-7.023913073059945e-188,0.0,0.0,5.457529944390973e-187,0.0,0.0,70.0,255.0,255.0,255.0
662,33.1,-5.000000000000011,-9.710603708767224e-189,-6.000000000000012,0.0,-1.9880455520320935e-188,0.0,0.0,1.4424301288708633e-186,0.0,0.0,70.0,255.0,255.0,255.0
663,33.15,-5.000000000000011,-8.814600672732182e-189,-6.000000000000012,0.0,7.40038821564869e-188,0.0,0.0,2.0829512181443354e-186,0.0,0.0,70.0,255.0,255.0,255.0
664,33.2,-5.000000000000011,-2.3102154931185327e-189,-6.000000000000012,0.0,1.8841466629411263e-187,0.0,0.0,2.0386877828592063e-186,0.0,0.0,70.0,255.0,255.0,255.0
665,33.25,-5.000000000000011,1.002686595667908e-188,-6.000000000000012,0.0,2.7787266044240754e-187,0.0,0.0,7.372133827195701e-187,0.0,0.0,70.0,255.0,255.0,255.0
666,33.300000000000004,-5.000000000000011,2.547705055112222e-188,-6.000000000000012,0.0,2.6213600456606965e-187,0.0,0.0,-2.036777903629567e-186,0.0,0.0,70.0,255.0,255.0,255.0
667,33.35,-5.000000000000011,3.6240466413286046e-188,-6.000000000000012,0.0,7.419487007945085e-188,0.0,0.0,-5.3832225273141865e-186,0.0,0.0,70.0,255.0,255.0,255.0
668,33.4,-5.000000000000011,3.2896537559067305e-188,-6.000000000000012,0.0,-2.7618624816534905e-187,0.0,0.0,-7.773679775802142e-186,0.0,0.0,70.0,255.0,255.0,255.0
669,33.45,-5.000000000000011,8.621841596751142e-189,-6.000000000000012,0.0,-7.031731075007634e-187,0.0,0.0,-7.608486386400498e-186,0.0,0.0,70.0,255.0,255.0,255.0
